gyroX,gyroY,gyroZ,accelX,accelY,accelZ,magnetX,magnetY,magnetZ,Time
4.0991245512982,1.786013771437,-3.6335025428693,5.0096582403017,-5.2364126134793,-6.6120601086556,0.73272100643796,0.68035297436514,0.016321934324908,0
3.8956245474673,1.6931351950402,-3.4536858714192,4.7916529102152,-5.1661867210234,-6.8247119008541, , , ,0.0099999997764826
3.7024402372706,1.605515183954,-3.2823494331863,4.5111849218545,-5.0594407546487,-7.0906976343986,0.77817177264026,0.62667194347821,0.042380810198742,0.019999999552965
3.5181167896757,1.5219469283501,-3.1200526995012,4.2444835562101,-4.9402483391907,-7.3353354898492, , , ,0.029999999329448
3.3430118275585,1.4429239015552,-2.9656813677228,3.9916847409581,-4.8110327710054,-7.5597063068931,0.81640555059747,0.57417915828262,0.061143499013557,0.03999999910593
3.1776322697002,1.369190212994,-2.8177485787691,3.752481167392,-4.6742878315832,-7.7652400788072, , , ,0.050000000745058
3.0201541685034,1.2991206286714,-2.6773992765853,3.5265214201228,-4.5318865050273,-7.9532350319089,0.84857815323437,0.52381569907731,0.073801037818302,0.059999998658895
2.8694426418133,1.2316901696946,-2.5449908244757,3.3134569970183,-4.3856874640831,-8.1249851348722, , , ,0.070000000298023
2.7269859922204,1.1686722217522,-2.41830768217,3.1126577505122,-4.2372213536925,-8.2817316112324,0.8754962073755,0.47643165513713,0.081925757103696,0.079999998211861
2.5918507099941,1.1092215431219,-2.2976262550999,2.9238101901692,-4.0876476075929,-8.4246067168998, , , ,0.090000003576279
2.463967471627,1.0534545961936,-2.1822686479156,2.7463176450532,-3.9380668839695,-8.5546211578813,0.89768361285064,0.43200775574932,0.086278279152645,0.10000000149012
2.3412562543044,0.99943757727996,-2.0738883424777,2.5794830714585,-3.7894209857857,-8.6730668658651, , , ,0.10999999940395
2.2253096395491,0.94890063533096,-1.9701400609505,2.4230333283093,-3.6423959793632,-8.7805828762555,0.91606295971138,0.39122471480569,0.087937662200575,0.11999999731779
2.1142120769997,0.90019942257254,-1.8724408871236,2.276243497544,-3.4976533467725,-8.8783058420372, , , ,0.12999999523163
2.0091063020125,0.85444754775242,-1.778988633665,2.138733779614,-3.3554873617496,-8.9668631550419,0.93140132943107,0.35361561758215,0.087410495041013,0.14000000059605
1.909452435055,0.81133095968027,-1.6900071349833,2.0097090667172,-3.2166069752038,-9.0473040705193, , , ,0.15000000596046
1.8144970023116,0.7701713663844,-1.6056821008441,1.8888518117668,-3.0812797952381,-9.1202291790674,0.94379445687083,0.31925835282182,0.085593134353694,0.15999999642372
1.7237018859287,0.73060249780356,-1.5261266267088,1.7756936843559,-2.9494765518922,-9.1862112868013, , , ,0.17000000178814
1.6377648796971,0.69339210273437,-1.4501342360637,1.6695736656038,-2.8216901688369,-9.2460912380905,0.95408336665883,0.2880208428172,0.082610672925446,0.18000000715256
1.5558770579783,0.65798823244811,-1.3780996026166,1.5701472907953,-2.6980504802974,-9.3003505983546, , , ,0.18999999761581
1.478305606067,0.62455327643575,-1.3094807972384,1.4769595957792,-2.5785681136268,-9.3494372321252,0.96247433922709,0.25967313493239,0.078874782179016,0.20000000298023
1.4045388542803,0.59285112802018,-1.2442318776963,1.3897014532147,-2.4631554484358,-9.3938651148794, , , ,0.20999999344349
1.3347449544709,0.56304460736547,-1.1819879734826,1.3078622168795,-2.3519956529315,-9.4341196326563,0.96938830724358,0.23402552745171,0.074638564882333,0.21999999880791
1.2679915369405,0.53430734338469,-1.1232437343246,1.2312166861484,-2.244988744915,-9.4704941395241, , , ,0.23000000417233
1.2055180657781,0.50804421729289,-1.0664224628776,1.1593999361175,-2.1420196504043,-9.5033130613457,0.97493362287971,0.21087874739262,0.070169093652364,0.23999999463558
1.1467067969246,0.48369665104896,-1.011927775666,1.092013776595,-2.0431930597643,-9.5330842983718, , , ,0.25
1.0890595015903,0.45883501193657,-0.96189282920861,1.0288549421167,-1.9483120554027,-9.559947838431,0.9796662990214,0.18990424757764,0.065585105353945,0.25999999046326
1.0339381351586,0.43481979795565,-0.9146850737091,0.96958780299275,-1.8571844868692,-9.5841992827838, , , ,0.27000001072884
0.98303304266875,0.41356492827117,-0.86834981745711,0.91399025272372,-1.770019866377,-9.6061313801027,0.983292464379,0.17101559115675,0.061115306259502,0.28000000119209
0.93531250324847,0.39404620129536,-0.82367758211369,0.86182742859351,-1.6865896156645,-9.6259613204892, , , ,0.28999999165535
0.88972358089122,0.37523935324353,-0.7814952753532,0.81280114670348,-1.6067777315597,-9.643889876195,0.98645784364149,0.15412327751024,0.056587173119677,0.30000001192093
0.8450809778019,0.35612300081932,-0.74269864545859,0.76686182015706,-1.5304172977148,-9.6600363034842, , , ,0.31000000238419
0.80274797446976,0.33798373932651,-0.70580607002189,0.72354067339445,-1.457424874704,-9.6747186511434,0.98892812638267,0.13875245542316,0.052220859893943,0.31999999284744
0.76275143274266,0.32105712036491,-0.67050039114639,0.68291903973858,-1.3877441532871,-9.6879570802855, , , ,0.33000001311302
0.72495944420363,0.30519562585431,-0.63670317522577,0.64468773141476,-1.3211718132069,-9.6999058674465,0.9910315086326,0.12496997192323,0.048023007686109,0.34000000357628
0.68941331445249,0.29046423379823,-0.60432910357699,0.60878004327098,-1.2576189365227,-9.7106737186764, , , ,0.34999999403954
0.65645691862818,0.27731771415532,-0.57263909259984,0.57501696139031,-1.1967743325471,-9.7203687902812,0.9926175968459,0.11261218212142,0.044210121867577,0.36000001430511
0.62344671557732,0.26313836725994,-0.54431439010862,0.54339752208259,-1.1389254438747,-9.7290358614548, , , ,0.37000000476837
0.59096206417096,0.24853849622418,-0.51846432023519,0.51349040099305,-1.0836669590848,-9.7369601237109,0.99402793641769,0.10145190111111,0.040582589332444,0.37999999523163
0.56168146891877,0.23626286379791,-0.49234005385791,0.48531815323752,-1.031046221952,-9.7441149722579, , , ,0.38999998569489
0.53313760092853,0.22391898665067,-0.46823165757627,0.458690306069,-0.98111562694763,-9.7507092633842,0.99514450184305,0.091459470511495,0.037099790766798,0.40000000596046
0.50713008105096,0.21332504428632,-0.44417032392142,0.4335226663783,-0.93341774156008,-9.7567404745009, , , ,0.40999999642372
0.48195696537377,0.20272465794874,-0.42186303642747,0.4100446035756,-0.88803504159354,-9.7619907483587,0.9960709231641,0.082269282256691,0.033875042720054,0.41999998688698
0.45728013873747,0.19194951181997,-0.40141988497441,0.3876895355926,-0.84447573954185,-9.7668011007782, , , ,0.43000000715256
0.43537708457737,0.18323396919748,-0.3803950682459,0.36676008233482,-0.80338807401563,-9.7711736728971,0.99674857973561,0.074282103562561,0.030948443421805,0.43999999761581
0.41347912984539,0.17391749369127,-0.36156801379043,0.34707580499426,-0.76381427806523,-9.7749462312097, , , ,0.44999998807907
0.39360001289776,0.16596550826665,-0.34273362455724,0.32840297165572,-0.72615846496107,-9.778420634126,0.99743027080157,0.066855335697007,0.028145102668914,0.46000000834465
0.37391700660672,0.15759564373404,-0.3255888566587,0.31067206732521,-0.69097654517413,-9.7818411614475, , , ,0.46999999880791
0.3551779212787,0.14966824726248,-0.30939244905482,0.29406878194527,-0.6568752435799,-9.7846377000837,0.99794205992211,0.060285534962883,0.025790195627726,0.47999998927116
0.33717992044326,0.14187203026533,-0.29416830465383,0.27852937742169,-0.62483328880606,-9.7871971420205, , , ,0.49000000953674
0.32133861549439,0.13580527863353,-0.27846821899057,0.2637053927073,-0.59390669776992,-9.7894751758248,0.99820877148504,0.054299141284827,0.023326536604035,0.5
0.30544192241718,0.12912657438615,-0.26440958038271,0.24973502265936,-0.56466151220628,-9.7915710328486, , , ,0.50999999046326
0.29055347195535,0.12303510615727,-0.2508178107356,0.23655022766851,-0.53651380885195,-9.7933584429349,0.99852886537826,0.048920508177818,0.021164857444826,0.51999998092651
0.27721591083471,0.11803806579109,-0.23709172239145,0.22421567804246,-0.5102320903684,-9.7950224490649, , , ,0.52999997138977
0.26405292459269,0.11281336440654,-0.22456306248938,0.21249638828465,-0.48499913136114,-9.7964879338681,0.99875452243194,0.044185412579862,0.019301115126522,0.54000002145767
0.25111791534837,0.10739070429309,-0.21306740056972,0.20136695855069,-0.46117712186408,-9.7978827914543, , , ,0.55000001192093
0.23686966519811,0.10033603104516,-0.20414598579527,0.19078013368344,-0.43823606617955,-9.7991303174258,0.99907009412667,0.039809717428537,0.017564314620272,0.56000000238419
0.22481168900907,0.095099061966523,-0.19412820024336,0.18074119289548,-0.41595016637179,-9.8001292894068, , , ,0.56999999284744
0.21374523876862,0.090475093497619,-0.18430198278383,0.1714245548966,-0.39581904035414,-9.8011998076284,0.99919027494258,0.035937858425246,0.015830906808949,0.5799999833107
0.2053656607714,0.088230684280428,-0.17278477530612,0.16228724842217,-0.37659762553925,-9.8023741725429, , , ,0.58999997377396
0.19586964896404,0.084608818295406,-0.16333648895447,0.15370912889649,-0.3577240849469,-9.8032288442214,0.99932068798637,0.032425584959278,0.014404529343935,0.60000002384186
0.18529872143339,0.079582715936937,-0.15599338012179,0.1456862831919,-0.34038932397564,-9.8040792557363, , , ,0.61000001430511
0.17580738580849,0.07536107794852,-0.1484152964228,0.13818968516693,-0.32402630514381,-9.8048565718087,0.99952814500596,0.029251054281817,0.013075836423667,0.62000000476837
0.16836698002075,0.072976082200176,-0.13962306914292,0.13087081099073,-0.30724764203203,-9.8053438198393, , , ,0.62999999523163
0.16078759731111,0.070112163252327,-0.13180909112613,0.12429638509335,-0.2926005891092,-9.8059058963446,0.99958932762356,0.026319173336199,0.011765785056098,0.63999998569489
0.15336861774306,0.067234058360178,-0.12463935458178,0.11764943750554,-0.27751315456395,-9.806370040611, , , ,0.64999997615814
0.14649844162922,0.064660836746198,-0.11762597094036,0.11192773251941,-0.2644629488427,-9.8067524087181,0.99969539150642,0.023869128589534,0.010669100698223,0.66000002622604
0.13894423819004,0.061180760696169,-0.11195762276796,0.10612304632136,-0.25066889895889,-9.8069831782372, , , ,0.6700000166893
0.13245028395633,0.058612718980946,-0.1058160854216,0.10071089605696,-0.2385131701422,-9.8074058238828,0.9997186216118,0.021471928631681,0.0096824554843162,0.68000000715256
0.12693253428012,0.056765600305408,-0.09948906296877,0.095452784387512,-0.2261008822338,-9.8075988514717, , , ,0.68999999761581
0.12057075601732,0.05391779252423,-0.094533158618874,0.090563825219772,-0.21534274577937,-9.8080131104229,0.99971089618486,0.019351632554772,0.0087735138940429,0.69999998807907
0.11351352400356,0.050188161245315,-0.09084259474739,0.085643096374324,-0.20431714402676,-9.808361890912, , , ,0.70999997854233
0.10806748897982,0.047877244274427,-0.086068070268459,0.081374051875269,-0.19470372881919,-9.8086427457132,0.99979968848801,0.017366668062464,0.0079645296597038,0.72000002861023
0.10315923222005,0.045935457649204,-0.081312739679224,0.077186623832262,-0.18450835485155,-9.8087201050341, , , ,0.73000001907349
0.097917568869877,0.043620032478478,-0.077253812904605,0.073474585167135,-0.1759713986725,-9.8088848501152,0.99974178788696,0.01569823457126,0.00718891638543,0.74000000953674
0.092823674817427,0.041255728254154,-0.073596929814906,0.069659674303795,-0.16685278472707,-9.8090034215583, , , ,0.75
0.08723971979746,0.038245923545725,-0.070882191862113,0.066016653051681,-0.15819480511276,-9.8091046279851,0.99981929216187,0.014227858289364,0.0064525901949977,0.75999999046326
0.08295170029968,0.036388292327063,-0.06724917307055,0.062947244795154,-0.15119529945205,-9.8092638994444, , , ,0.76999998092651
0.078824469557323,0.034585995607588,-0.063893287255731,0.05964374640655,-0.14341072394355,-9.8093930238311,0.99991431745256,0.012746511117987,0.0058286222943013,0.77999997138977
0.074071074053214,0.032034170621973,-0.061476943601283,0.056276030965546,-0.13623966290768,-9.8097046873283, , , ,0.79000002145767
0.070073273708898,0.030175140601383,-0.05865911237813,0.053313605974364,-0.12919442741123,-9.8097730628435,0.9999317228968,0.011562003882881,0.0051726171236683,0.80000001192093
0.0669795840633,0.029031961742401,-0.055417915694833,0.05269971272007,-0.12758212643988,-9.8097484449466, , , ,0.81000000238419
0.064363988009049,0.028326028566393,-0.051825940976652,0.048800915354259,-0.11885240685327,-9.8100203161418,0.99988028719429,0.010425040944296,0.0046646442042572,0.81999999284744
0.061584291686098,0.027340954349379,-0.04891068264765,0.047573317153151,-0.11512342929475,-9.8097825883316, , , ,0.8299999833107
0.057056184466907,0.024516790264527,-0.047872536190505,0.044170584133392,-0.10697603019496,-9.8098460298366,0.99996590043307,0.0092685929154471,0.0043698516830506,0.83999997377396
0.054761355100049,0.023911298404466,-0.04485544990507,0.04286160166384,-0.10394246140242,-9.8098960747551, , , ,0.85000002384186
0.051607811964415,0.022291318507639,-0.042990816499318,0.039783144271967,-0.096709741118141,-9.809989958174,0.9999898018717,0.0085218157603988,0.00389815443767,0.86000001430511
0.049519336380098,0.021647580202361,-0.0403608493395,0.03856185209715,-0.093912438548175,-9.8100361148062, , , ,0.87000000476837
0.046412340646354,0.019885144470844,-0.039066657064366,0.035519314685213,-0.086652659255706,-9.8101084723485,0.99999671290438,0.0076202765378821,0.0034725229666862,0.87999999523163
0.042363565437262,0.017196908233851,-0.038809047931269,0.034795498118869,-0.084745593968111,-9.8100728844183, , , ,0.88999998569489
0.039231541714924,0.015325700315446,-0.037825357781032,0.032047093908813,-0.078571313587695,-9.8102223247693,0.999954220186,0.0069269625364787,0.0031541467644144,0.89999997615814
0.037962157606965,0.015246844906549,-0.035353194467917,0.031270803433784,-0.076607164705492,-9.8101795445072, , , ,0.91000002622604
0.035734110121242,0.014116673683581,-0.033820516222712,0.029091386294763,-0.071514852458582,-9.8102532543639,0.99998423185274,0.0063525639952653,0.0027581344407871,0.9200000166893
0.033414593888842,0.012897734065965,-0.032749419889459,0.028168866242711,-0.069167888772226,-9.8102101068236, , , ,0.93000000715256
0.032203103147292,0.012755441051657,-0.030616962977085,0.028269275931306,-0.06907926579282,-9.8101538376919,0.99999861598593,0.0056276324680623,0.0026484359259624,0.93999999761581
0.03098775751894,0.012520991921207,-0.028618323973958,0.025239027173474,-0.061831788236476,-9.810182385357, , , ,0.94999998807907
0.029157401240068,0.011574293824864,-0.027504752567476,0.024079066492242,-0.059379702442671,-9.8102900051165,1.0000094913244,0.0051317496974616,0.0024262432656996,0.95999997854233
0.027516135050209,0.010807781839223,-0.026390415280954,0.024038085478763,-0.059412658840461,-9.8103324275845, , , ,0.97000002861023
0.025970366224155,0.010079094341046,-0.025078170023603,0.021455036181884,-0.053094079593202,-9.8103111032836,1.0000144476871,0.0044893684275419,0.002119871169971,0.98000001907349
0.024401722532441,0.0093450858945227,-0.024180384019315,0.020540833142492,-0.051003908830969,-9.810332962959, , , ,0.99000000953674
0.023820480350768,0.0095262377091644,-0.022281044333866,0.020606338315117,-0.050950422579079,-9.8102881223714,1.0000000187432,0.0041817642338747,0.0018915060666707,1
0.023936132310286,0.010345765439498,-0.019955629068643,0.018310308756562,-0.045990925798838,-9.8104940112612, , , ,1.0099999904633
0.022714383433968,0.0098133995983687,-0.018952549437525,0.017433946943808,-0.043933658815732,-9.8104960515653,1.0001515916617,0.0036917389881721,0.0017544181510485,1.0199999809265
0.020850384505721,0.0085890019612331,-0.018663460324628,0.017501607907797,-0.043851507384815,-9.810436547009, , , ,1.0299999713898
0.021208724567022,0.0095612586738356,-0.016329741908092,0.01605693214969,-0.040164106632376,-9.8103682906559,1.0000434932879,0.0033562962045662,0.0015430703998223,1.039999961853
0.020405842912439,0.0093009260322853,-0.01536717743131,0.015066850081279,-0.037574933215363,-9.8103281854711, , , ,1.0499999523163
0.020415986533234,0.0099187075584432,-0.013486292939016,0.015047088880888,-0.037588925645256,-9.8103344596519,1.0000188217636,0.00302952553667,0.0014399334554072,1.0599999427795
0.020604271811317,0.010635420857327,-0.011627406246837,0.014940661931696,-0.037684615593555,-9.8104292067708, , , ,1.0700000524521
0.019254040766446,0.0097813926967256,-0.011261265479358,0.012798383865039,-0.032566113952845,-9.81045621598,0.9999801437154,0.0027575359686202,0.0011640787404405,1.0800000429153
0.018162556099013,0.0091777624334038,-0.010920236872297,0.012158019234882,-0.030729332380705,-9.8103558872504, , , ,1.0900000333786
0.016118163875719,0.0075447263843388,-0.011437367971375,0.012113111917669,-0.030776558811049,-9.8104111288827,1.0000605552631,0.0024186504058588,0.0010087917624044,1.1000000238419
0.01678945123856,0.0086246580371401,-0.0095719801116186,0.012207665376124,-0.030689467725266,-9.810344961596, , , ,1.1100000143051
0.015563449545523,0.0078965232550909,-0.0091270738640019,0.012205725014777,-0.030670231560903,-9.8103107342833,0.99995829941845,0.0022303437133911,0.000971696101052,1.1200000047684
0.015776044545331,0.008405940551195,-0.0079381204458223,0.0099716225220539,-0.025645957028121,-9.8104413584136, , , ,1.1299999952316
0.014597922488349,0.0076519997547417,-0.0077714341197483,0.0092729822903133,-0.023977159547947,-9.810453802051,1.000002213123,0.0020343011676638,0.00092089625752732,1.1399999856949
0.013904284821135,0.007273580236898,-0.0074155263128829,0.0091663968142652,-0.024074531296939,-9.8105645200268, , , ,1.1499999761581
0.014519733666872,0.0082433694731719,-0.0057642868082759,0.0091463600921653,-0.024117550220663,-9.8105936020453,1.0001104050271,0.0018004518670338,0.00086094267639245,1.1599999666214
0.013348701100203,0.0074145696098625,-0.0058438337087958,0.0077041368337139,-0.020402946799999,-9.8105046420729, , , ,1.1699999570847
0.013380581663901,0.0076207829443373,-0.0052551766809394,0.0075214963915185,-0.019597586882743,-9.8104176318897,0.99995990164152,0.0016528257437636,0.00076996863058577,1.1799999475479
0.013384325296857,0.0081619920274659,-0.0033872098975647,0.0074796209178616,-0.019637966331265,-9.8104631537362, , , ,1.1900000572205
0.012594384511765,0.0076091308140934,-0.003523843679518,0.0074612320707097,-0.019630740003536,-9.8104482849767,0.99999895503671,0.0013726487041114,0.00076474984878948,1.2000000476837
0.012244879127214,0.0074317111108225,-0.0031813733711214,0.007703837877078,-0.019427577182106,-9.8102528222511, , , ,1.210000038147
0.011349314311877,0.0067431829518447,-0.0034039982745114,0.0062098987933325,-0.015756690906965,-9.8102024609835,1.0000641152107,0.0013898208657419,0.00065746731262321,1.2200000286102
0.010630536032571,0.0060975062286653,-0.004053244569303,0.0061152627445704,-0.014986477355043,-9.8100698216235, , , ,1.2300000190735
0.0098738516345876,0.0057804882204742,-0.0033019376680619,0.0060537061507848,-0.015024513494311,-9.8101276532589,0.99997605459603,0.0012815230233405,0.00049828295093686,1.2400000095367
0.010154006708094,0.006296304969365,-0.002186668210734,0.0060680065521668,-0.01507053876008,-9.810120506497, , , ,1.25
0.0094376259420433,0.0056319470997534,-0.0028726721850783,0.006043303600193,-0.015075092197979,-9.8101343572447,1.0000417376582,0.0011113838742143,0.00048478727451959,1.2599999904633
0.0085560065517886,0.0050138670948779,-0.0028663240090173,0.006174990300705,-0.01495351994559,-9.8100218194929, , , ,1.2699999809265
0.0086471900875524,0.0050888618609457,-0.0027654323860866,0.0063672175198988,-0.014741363679229,-9.8098063992823,1.0000699748911,0.00092427346673948,0.0003676424259993,1.2799999713898
0.0086996229162269,0.0054945050900157,-0.0017065409392377,0.0048768233527008,-0.011126527399756,-9.8098183349456, , , ,1.289999961853
0.0097191718413164,0.0064687797841143,-0.00068721282686709,0.0046662028008152,-0.010130946777352,-9.8096558622806,0.99996604549305,0.00083839276645943,0.00045231471278168,1.2999999523163
0.0088469771912445,0.0059560223736146,-0.00046476523260084,0.0046930657639245,-0.010110088245981,-9.8096350976237, , , ,1.3099999427795
0.0075210468253621,0.0046352397857732,-0.0017715894729188,0.0047522489418537,-0.010054559583063,-9.8095866327632,0.99995305579048,0.00073003313901737,0.00042861735908689,1.3200000524521
0.0075274606865247,0.0050591153576021,-0.00052091200525775,0.0047793350623897,-0.010034931236201,-9.8095609240976, , , ,1.3300000429153
0.0084390564549244,0.0059674009673566,0.00036968858087301,0.0048311798829558,-0.009994037271115,-9.8095027595396,0.99994943009939,0.00073427754131547,0.00041557076458694,1.3400000333786
0.0085359158243429,0.0065094589909285,0.0019455774916697,0.0048058716258324,-0.010027404898427,-9.8095201148455, , , ,1.3500000238419
0.0071988301189005,0.0051346213575881,0.00059161006847825,0.0048149526752126,-0.0099772474444373,-9.8095287428684,1.0000216687832,0.00059646651678335,0.00032406472168755,1.3600000143051
0.0072925734398024,0.0052537778831064,0.00071806518144876,0.0048883347905113,-0.0099086295302177,-9.8094396623649, , , ,1.3700000047684
0.0093591281470252,0.0072968568127202,0.0027601709661092,0.0050305905008414,-0.009777776456486,-9.8092857359766,1.000060558521,0.00060836434145273,0.00021997113508491,1.3799999952316
0.0083977097552663,0.0063544513530727,0.0018093420741446,0.0052067446906495,-0.0096171681909973,-9.8091368203473, , , ,1.3899999856949
0.0078092688273467,0.0063880215978679,0.0031661712092402,0.0050892992843558,-0.0097226987291505,-9.8092399773548,1.0000231586503,0.00052952677583494,0.00027429206157411,1.3999999761581
0.0079206906845041,0.0064440560787318,0.0032306619150131,0.005102783990583,-0.0096801634793701,-9.8092236948173, , , ,1.4099999666214
0.0074083893015284,0.0059503004783055,0.0027275820534409,0.0051536429274029,-0.0096725742354036,-9.8091829716259,0.99995291225789,0.00041434757547325,0.00030888673630573,1.4199999570847
0.0085651469127984,0.007117459205455,0.0039018529608809,0.0037239726242957,-0.0059445362151243,-9.8091168544935, , , ,1.4299999475479
0.0079755611439893,0.0064982132656714,0.0033312770322285,0.0032357946302023,-0.0044714452295398,-9.8090346226703,1.0000547941557,0.00053739774020705,0.0001949648412351,1.4400000572205
0.0075261525168975,0.0061107734093091,0.0028904521588768,0.0032368378420694,-0.004458274057727,-9.8090468082384, , , ,1.4500000476837
0.0071568021073141,0.005726703064364,0.0024902296249999,0.0032010992899334,-0.0044992359498265,-9.8090515818836,1.0000663518727,0.00044198952264772,0.00012033458838553,1.460000038147
0.0071822898715918,0.0057263426090295,0.0025217171322819,0.0029861555201877,-0.0047095044834234,-9.8092712982233, , , ,1.4700000286102
0.0061090040033978,0.004632084077702,0.0014067818394138,0.0029264413689931,-0.0047504395947244,-9.8093140714779,0.99997232206553,0.00039567781522825,6.6033702676263e-05,1.4800000190735
0.0064996824438712,0.0050483678909721,0.0018566528736838,0.0029167750224809,-0.004793076814744,-9.8093397522843, , , ,1.4900000095367
0.0071301444018149,0.0056834802069812,0.0024844518862183,0.0029371278331248,-0.0047337435976002,-9.8093138074773,0.99993662535293,0.00035778266891492,0.00017639133289706,1.5
0.0044406717013918,0.0044536453384023,0.0043864876682667,0.0030200600850476,-0.0046529082601653,-9.8092069777834, , , ,1.5099999904633
0.0039425801624952,0.0039517688437127,0.0039421944336017,0.003027330072916,-0.0046609484008118,-9.8092417440714,0.99995809319632,0.00028034591608006,0.00014001972983106,1.5199999809265
0.0039634754879259,0.0039346683457368,0.0039575362521381,0.0031479451132187,-0.0045281271852201,-9.8091004311639, , , ,1.5299999713898
0.00374430815648,0.003769646532316,0.0037535236648767,0.0033369157397173,-0.0043642874275905,-9.8089100699902,0.99994604732599,0.0003436522012129,0.00014700362272582,1.539999961853
0.0034948157407808,0.0035043054397358,0.0035204277408214,0.0033830403206431,-0.0043119138998976,-9.808874677518, , , ,1.5499999523163
0.0048878722387045,0.0048999762985481,0.0048824856981365,0.0033281975632705,-0.0043653132203388,-9.8089344435346,0.9999576142613,0.00030322233802971,0.00019349992647277,1.5599999427795
0.0060554000210557,0.0060171924422406,0.0060551491232377,0.0033334513952964,-0.0043824214612236,-9.8089264665324, , , ,1.5700000524521
0.0067129726669061,0.0066911403180434,0.0067103249051924,0.0032415068082791,-0.0044261071231586,-9.8089902065427,0.99999707608965,0.00036345498936291,0.00013344047135075,1.5800000429153
0.0062129253529159,0.0061776122320142,0.0062542738794249,0.0032478197330459,-0.0044407517288769,-9.8089820627428, , , ,1.5900000333786
0.0053729392848044,0.0053764900122021,0.0053688661868903,0.0033146397286474,-0.0043828725069805,-9.8089413679088,0.99996936844935,0.00029409372159113,0.0001723876303896,1.6000000238419
0.0045403131182439,0.0045451541817234,0.0045368883964409,0.0034867781037079,-0.0042164414413748,-9.8087649773765, , , ,1.6100000143051
0.0040641095257516,0.0040293107859495,0.0040825869040659,0.0033098563981916,-0.0043946475414693,-9.8089420999615,1.0000278331624,0.00026741373753119,9.0631905189923e-05,1.6200000047684
0.0024790250713173,0.0024714197079375,0.002496785128494,0.0034054905351489,-0.0042978658246659,-9.8088670605295, , , ,1.6299999952316
0.00083918303540667,0.00083961926184905,0.00082623213246358,0.0033063263068353,-0.0043901083465034,-9.8089551359273,0.99996543637629,0.0003569567316985,0.00015868314897461,1.6399999856949
-0.00029191045104885,-0.00028583365602543,-0.00031687839976423,0.0031874945049083,-0.0045028285331516,-9.8090434345697, , , ,1.6499999761581
8.362727379761e-05,7.3395515430125e-05,9.4169848057767e-05,0.0031484167691341,-0.0045394219375007,-9.8091092575989,0.99998516456477,0.00031489269487983,0.00010563705812654,1.6599999666214
0.0017010823431444,0.0016864279672411,0.0016686442205069,0.0031303497357968,-0.0045674426010098,-9.8091279901447, , , ,1.6699999570847
-0.00016531480692826,-0.00014112873606134,-0.00016639585585627,0.0030806096093693,-0.0046290510764625,-9.8091719017482,1.000019643793,0.0003742018817866,0.00011383157981299,1.6799999475479
-0.00082695217091183,-0.00080175960222237,-0.00082550131478108,0.0031695381637257,-0.0045227608935485,-9.8091018342704, , , ,1.6900000572205
-2.3479370806406e-05,-2.9181298054726e-05,-5.6749246945105e-05,0.0032553533420308,-0.0044573506707894,-9.809005763155,1.0000362780104,0.00034440359384137,0.00017301018777321,1.7000000476837
0.00069363681924951,0.00071991164174302,0.00068965830990818,0.0032738806973752,-0.0044226331112484,-9.8089732843971, , , ,1.710000038147
-0.00034665355346707,-0.00032102595155804,-0.00034181488209454,0.0030811519691528,-0.0046169248424799,-9.8091618042295,1.0000306861982,0.00036684862741094,0.00012069125509481,1.7200000286102
0.00011858330626885,0.00012264925045236,0.00013849801539828,0.0030065309353589,-0.0046957833720828,-9.80925566545, , , ,1.7300000190735
0.00071372447220332,0.00073318195774034,0.00071691200576343,0.0031394888441359,-0.0046029204682013,-9.8091323515951,1.0000758285253,0.00027236727130429,0.00013109103730181,1.7400000095367
-4.738516190974e-05,-4.8765596569151e-05,-3.5211176418048e-05,0.0030473395997848,-0.0046369552589603,-9.8092071013377, , , ,1.75
-0.00052434974677013,-0.00053286082676931,-0.00050590197249518,0.0030057424016736,-0.0046791474137446,-9.8092222697011,0.99986044098237,0.00027058380018934,0.00016546686440625,1.7599999904633
0.00078242096432139,0.00075582589503275,0.00078415921850461,0.0029606703045453,-0.0047369759042626,-9.8093091843955, , , ,1.7699999809265
0.00081318220877161,0.0007879752495606,0.00082187022350994,0.0029334291139306,-0.0047614633153499,-9.8093255595691,0.99992232829201,0.0003182675844828,0.00018311859690306,1.7799999713898
-0.00036009816716533,-0.00037747191836272,-0.00036542479775109,0.0028495601602316,-0.0048495035724457,-9.8094288108575, , , ,1.789999961853
-0.00028157686497658,-0.00031665726845483,-0.00033163205850016,0.0027797306791758,-0.0049147626938345,-9.8094773659547,1.0000445215465,0.00040419343307009,0.00014755305332388,1.7999999523163
0.00022994860571417,0.0002192250626127,0.00021695477077292,0.0028992965251684,-0.004811624075266,-9.8093474321981, , , ,1.8099999427795
0.00054915891967126,0.00054412882175315,0.00059732940480802,0.0029274464082201,-0.0047749677564792,-9.8093356573784,1.0000038027429,0.00025542296872956,0.00019070589337628,1.8200000524521
0.0021088456399806,0.0021260819054524,0.002125558973243,0.0029901251921203,-0.0047384193541262,-9.8092726781772, , , ,1.8300000429153
0.0017479531942849,0.0017746648612747,0.0017749078703816,0.0029831812978323,-0.0046945223767829,-9.8092589864034,0.99997134980081,0.00028994749765092,0.00017395511523941,1.8400000333786
0.0016505166854358,0.0016765421513335,0.0016663115195132,0.0029899611232865,-0.0047130098088918,-9.809286743253, , , ,1.8500000238419
0.0015392120852638,0.0015720296516256,0.0015644223207044,0.0030616977042994,-0.0046420686656052,-9.8091971240528,0.99996262731032,0.00035073570503111,0.00015772189037018,1.8600000143051
0.0019021887663419,0.0018731325503752,0.0018644753923465,0.0029446410805451,-0.0047415274820071,-9.8093128793805, , , ,1.8700000047684
0.0022303985457579,0.0022647104666013,0.0022410878775903,0.0030514674092302,-0.004641721790335,-9.8092023238047,0.99996981872537,0.00035402434208027,0.00018225603742025,1.8799999952316
0.0022760707160656,0.0022662740137725,0.0022800964212218,0.0031455823476104,-0.0045493675537368,-9.8090870532398, , , ,1.8899999856949
0.0014972787397347,0.0014853908044364,0.0014662081997065,0.0032263010672285,-0.0044568259001536,-9.8090259922985,0.99988126400143,0.0003770132221786,0.00015751398567824,1.8999999761581
0.00059095804740544,0.0005855138472099,0.00057429171870716,0.0031708407487718,-0.004528221377646,-9.8090766490369, , , ,1.9099999666214
0.00073166138938639,0.00072472764724928,0.00073509989321477,0.0032008445412388,-0.0044943277038386,-9.8090631394015,1.0000292663016,0.00037011222709808,0.00010510707381887,1.9199999570847
0.0010126609501063,0.00099206776457738,0.00097462315321814,0.0031994786785139,-0.0044783625640458,-9.8090454310571, , , ,1.9299999475479
-0.00030756579006852,-0.00028426455233406,-0.00024737021686164,0.0031558610016135,-0.0045460847909462,-9.8091272457123,1.0001311625286,0.00039564702918059,0.0001200939400699,1.9400000572205
-0.00014388146938826,-0.00014557932005649,-0.00012843813777938,0.0032825787596205,-0.0044167563969567,-9.8089957792218, , , ,1.9500000476837
0.00022991927712357,0.00019441890134675,0.00023232439912632,0.0032921871080839,-0.0043970934026969,-9.8089490426445,1.0000245850272,0.00047104641153298,0.00020462516645266,1.960000038147
0.00018096232528305,0.00017257951317126,0.00017742478449142,0.0032451606990643,-0.0044523036411876,-9.8090285700779, , , ,1.9700000286102
0.00036807816007647,0.0003677935628031,0.00032933007881007,0.0030983635978467,-0.004599299468037,-9.8091581426869,0.99993922526128,0.00043281522665775,0.00023205518660309,1.9800000190735
0.001564659595034,0.001572346630519,0.0015583699624446,0.0030048631798573,-0.0046682906001379,-9.8092283224025, , , ,1.9900000095367
0.0014977435609754,0.0014969719653459,0.001505132935475,0.0031732520807641,-0.0045407579665168,-9.8090842673472,0.99997135194294,0.00033616710121762,0.00014078834138486,2
0.00089442441938065,0.00089112246122816,0.00088628681993151,0.0032360958434669,-0.0044647953467537,-9.8090105654728, , , ,2.0099999904633
0.0014684555350988,0.0014668326187625,0.0014989690997196,0.0032430694611763,-0.0044421831729094,-9.8090148378205,1.0000533892972,0.00034571114152604,5.3917023924174e-05,2.0199999809265
0.0022539843328611,0.0022497896456207,0.0022608416125539,0.0032836040802934,-0.0044222551363624,-9.8089862064182, , , ,2.0299999713898
0.0033332402708077,0.0033361533756455,0.0033137568211244,0.0033617458554391,-0.0043360144713801,-9.8088822500723,0.99997602813454,0.00037135152264608,0.00011322952391652,2.039999961853
0.0026716638006419,0.0026591487522019,0.002665007942273,0.0034112483340212,-0.0042822790553716,-9.8088558895947, , , ,2.0499999523163
0.0028249907058192,0.0028285358878263,0.0028245459465148,0.0034458289557322,-0.0042377542594093,-9.808806285754,1.0000258249831,0.00039243201207797,0.00022201552904481,2.0599999427795
0.0021515889666538,0.0021684333506483,0.0021660996512541,0.0033985555286398,-0.0043225152138398,-9.8088590140548, , , ,2.0699999332428
0.0024750196553726,0.0024961192268092,0.0024816425930444,0.003187600153983,-0.0045017069674109,-9.8090567297209,1.0000505449353,0.00033958246736489,0.00019312541721272,2.0799999237061
0.001733077174576,0.0017350964699363,0.0017247347305879,0.0033050559996148,-0.0043848800683916,-9.80893016263, , , ,2.0899999141693
0.0016940618100164,0.0016796565603485,0.0016546095630051,0.0031204811673101,-0.0045808252550549,-9.8091467791647,0.99997996479755,0.00039373869283123,0.00015263837462719,2.0999999046326
0.00086871162379007,0.00086376310741377,0.00090848072633452,0.0029846690670853,-0.0047457778622232,-9.8092823980836, , , ,2.1099998950958
0.00082649094874599,0.00082987962003724,0.00081251122070794,0.003079829383535,-0.0046281693212336,-9.8091787110709,1.0000016224509,0.00039738550588058,0.00014070204061879,2.1199998855591
0.00017686793146436,0.000198437353722,0.00018464739321235,0.0030047559114779,-0.0046966812970314,-9.8092300034538, , , ,2.1300001144409
0.00043687553303525,0.00043739421004461,0.00041022371756989,0.0030888432260794,-0.0046315359728989,-9.80918703969,0.99995165974411,0.00030084804507102,8.2020030914228e-05,2.1400001049042
0.0022484439618611,0.0022032803222789,0.0022233407775955,0.0030355043059032,-0.0046558465824523,-9.8092222104049, , , ,2.1500000953674
0.0030898120736979,0.0031412946623402,0.0031046875639708,0.0031313717400405,-0.0045891170384159,-9.8091423097723,0.99997150164233,0.00031181394973165,0.00027275159808943,2.1600000858307
0.0040555519946258,0.0040513852982997,0.0040460821009932,0.0032424203102785,-0.0044719414204655,-9.8090509332023, , , ,2.1700000762939
0.0031661102590942,0.0031689108308046,0.0031755640255071,0.0033030770506046,-0.0043938093615076,-9.8089618332787,1.0000223264185,0.000283803445278,0.00020954547994745,2.1800000667572
0.0036514951480995,0.0036358515626645,0.003651102779469,0.0031981370762412,-0.0045179078785877,-9.8090572571389, , , ,2.1900000572205
0.0044166423570131,0.0043994055069754,0.0043653059573059,0.0034273875660898,-0.0042774472548639,-9.8088251520664,0.99999132562456,0.00037222976621627,9.5251943557631e-05,2.2000000476837
0.0050296299764788,0.0050489547891066,0.0050497782200355,0.0034303585220847,-0.0042547547412787,-9.8088429367241, , , ,2.210000038147
0.0040615911128951,0.004066846718397,0.0040500373472202,0.003530923163227,-0.0041754371574652,-9.8087302010643,1.0000498639454,0.0002709473824303,0.00015807179399226,2.2200000286102
0.0051789400575339,0.0052043320466016,0.0051912672394746,0.0034687058302923,-0.0042188073922262,-9.8087894960529, , , ,2.2300000190735
0.0043135446836029,0.0042928792692595,0.0043192836657156,0.0035440477517901,-0.0041415488800264,-9.8087171459487,1.0000073724427,0.000277271505194,9.6375817293497e-05,2.2400000095367
0.0046906458936745,0.0046647030887504,0.0046801329869069,0.0036764783254706,-0.0040023932056673,-9.8085736729912, , , ,2.25
0.0056351670386847,0.0056539850840269,0.005628656351289,0.0036515377594095,-0.0040411668982751,-9.8086049770799,1.0000551947933,0.00031601506314648,5.958039000887e-05,2.2599999904633
0.0063620077091521,0.0063673822435221,0.0063162480730881,0.0035368435530024,-0.0041722316374531,-9.8087232276113, , , ,2.2699999809265
0.0056450141782385,0.0056522966550103,0.0056446962708625,0.0035195232758842,-0.0041611361936566,-9.8087261511407,1.0000278821497,0.00041283695468442,0.00014450069582262,2.2799999713898
0.0050367177265933,0.0050611500166035,0.0050499822081469,0.0036094485506581,-0.0040744655874669,-9.8086574380869, , , ,2.289999961853
0.0042968422852556,0.0042843518122079,0.0042588785756021,0.0037210805886372,-0.0039631151539792,-9.808508895748,0.99990742541307,0.00037854292478825,0.00016590322087416,2.2999999523163
0.0050068975157843,0.0050294010551677,0.005034129612583,0.0037452895933888,-0.0039565636716948,-9.8085198900491, , , ,2.3099999427795
0.0053616163388772,0.0053320482395837,0.0053363860157629,0.0037110282275563,-0.0039395771381048,-9.8085336561031,1.0000336676193,0.00032911885309712,0.00015001177945699,2.3199999332428
0.0054486982635503,0.0054490643261136,0.0054654387873232,0.0037625611674166,-0.0039404183769817,-9.8084974246559, , , ,2.3299999237061
0.0055799639257026,0.005572426595349,0.0055505900168819,0.0037466155898581,-0.0039625202236729,-9.8085034863645,0.99986895108755,0.00031793172062623,0.00026811507104798,2.3399999141693
0.0057570465211918,0.0057604649294281,0.0057382968964392,0.0036071500982615,-0.0041029213222877,-9.8086638928285, , , ,2.3499999046326
0.0070032266766759,0.0069714656279404,0.0069678878242244,0.0037225035793902,-0.0039623601834932,-9.8085300413124,1.0000677508748,0.00029998516047715,0.0002302031266889,2.3599998950958
0.0071789250119237,0.0071345502799933,0.0071917198533464,0.003720436074355,-0.0039649154576683,-9.8085474967728, , , ,2.3699998855591
0.007504889721379,0.0074893734936481,0.0075089052880384,0.0038250369287095,-0.0038590863152318,-9.8084231646475,0.99989286079117,0.00035437560527054,0.00012799578173366,2.3800001144409
0.0069169288295445,0.0069271110148189,0.0068816893516749,0.0037000651402413,-0.0040135852758663,-9.8085771491142, , , ,2.3900001049042
0.0076171533656126,0.0075898044031869,0.0076025437755368,0.0036948940459406,-0.0040080707829121,-9.8085754985685,1.0000078475756,0.00037247352115337,0.00016860551912642,2.4000000953674
0.0054990539869894,0.0055158717223946,0.0055065061314189,0.0035558044293775,-0.0041341582777696,-9.8086923407384, , , ,2.4100000858307
0.0067424016582874,0.0067438396893106,0.0067421513894703,0.0034768189732572,-0.004212172749356,-9.8088016783374,0.99997609760452,0.00037296002366231,0.00014408342215137,2.4200000762939
0.006476582227864,0.0064741417696219,0.0064784659475499,0.0034402940462239,-0.0042931460267522,-9.808805560788, , , ,2.4300000667572
0.0071000688742657,0.0071167167896644,0.0071269929244182,0.0033984778504867,-0.0042973550128365,-9.8088727672993,0.99995373528174,0.00031682540872306,0.00017384499124218,2.4400000572205
0.0070269803565733,0.0070175823104161,0.0070042685751641,0.0034584181468078,-0.0042597277613689,-9.8088036760274, , , ,2.4500000476837
0.0059661738506703,0.0059821711338787,0.0059509900272712,0.003502472031368,-0.0041611316156433,-9.8087413344097,1.000061862471,0.00030145025880846,0.00014694329057076,2.460000038147
0.0057641206685572,0.005790027677271,0.0057820117414418,0.0035291618450494,-0.004171072627227,-9.8087276026036, , , ,2.4700000286102
0.0057372277188672,0.0057218220154244,0.0057431920101079,0.0036295169999543,-0.0040650069465915,-9.8086113396432,0.99989652539373,0.00042704280976812,0.00016080015490829,2.4800000190735
0.0065989824309136,0.0066158020061791,0.0066200153316324,0.0037083476644754,-0.0039531912505461,-9.8085529098257, , , ,2.4900000095367
0.006531695483931,0.0065772004616218,0.0065589458695778,0.003802512769922,-0.0039115105917755,-9.8084851382274,0.99996088126876,0.00033942549205938,0.00018990296982309,2.5
0.0060344168846541,0.0060477689094434,0.0060603568872386,0.0038408272873989,-0.0038533910002643,-9.8084198651638, , , ,2.5099999904633
0.0058410488651781,0.0058308159043385,0.0058243629012171,0.0038456724995728,-0.0038485689251839,-9.8084102874926,1.0000192841636,0.00028029304091997,0.00013510503894743,2.5199999809265
0.0065417058149115,0.0065751055664922,0.0065492494367072,0.0038667854500833,-0.0038448091159014,-9.808386735435, , , ,2.5299999713898
0.0053245565438084,0.0053289650944969,0.0052829049740275,0.0039571454279079,-0.0037272131533307,-9.808271194374,1.0000246995946,0.00031695353404145,0.00017410060391421,2.539999961853
0.005183570913303,0.0051975779278793,0.0051935749192518,0.0040766876005311,-0.0036032063166036,-9.8081680632263, , , ,2.5499999523163
0.0047904185475431,0.0047499245624898,0.0047742938746948,0.004069712540439,-0.0036208607321574,-9.8081919152743,0.99998257085149,0.00033455128443306,8.2654353671068e-05,2.5599999427795
0.006105311339025,0.0061109777996734,0.0061253769085948,0.0040013596836154,-0.0036839122792788,-9.8082551770249, , , ,2.5699999332428
0.0060031801681523,0.0060128967737715,0.0060333359925985,0.0040074781165009,-0.0037029659449505,-9.8082499116459,1.0001111224861,0.00033324974431247,0.00017937727539013,2.5799999237061
0.0064895273945155,0.0064786696528687,0.0064885466069276,0.0039866921300201,-0.0037128696717601,-9.8082640034447, , , ,2.5899999141693
0.0058949070057632,0.0058900776155617,0.0059021926423914,0.0040351342614168,-0.0036572317248005,-9.8082275073978,1.0000521737413,0.00035359007012632,0.00020537951828877,2.5999999046326
0.0063755574363047,0.0063910484234707,0.0063897415361941,0.0040313314254309,-0.0036450672727086,-9.8082265955111, , , ,2.6099998950958
0.0061923891166163,0.0062164122514551,0.0062075167699806,0.0039539892010564,-0.0037242610899866,-9.8082961801602,1.0001012791804,0.00026918491734807,6.4710268300295e-05,2.6199998855591
0.0065534389709729,0.0065807453487529,0.0065243935893739,0.004194779217476,-0.0034757525428364,-9.8080587465002, , , ,2.6300001144409
0.0056037967393026,0.0056003616903931,0.0055978888298107,0.0043063098809199,-0.0034127925475454,-9.8079646250536,0.99997163295616,0.00038919276564109,0.00017844055330276,2.6400001049042
0.0055496084205289,0.0055624865842069,0.0055475718626925,0.0041738152266621,-0.0035163751621985,-9.8080704261551, , , ,2.6500000953674
0.0064740240409108,0.006456762440812,0.0064525793603766,0.0042429337411523,-0.0034602012537111,-9.8080187394132,0.99995095010801,0.00050777792373942,0.00018906056165614,2.6600000858307
0.0073350716552187,0.0073071161490604,0.0073151762163415,0.0041940342648712,-0.0035068639818105,-9.8080641521007, , , ,2.6700000762939
0.0071506644484746,0.0071320418535401,0.0071615751071917,0.0040101800467669,-0.0036882717678787,-9.8082397543564,1.000150729689,0.00043423046001757,0.0002787806676814,2.6800000667572
0.0074319483660008,0.0074293524874332,0.0074048920382708,0.004146351163405,-0.0035603158474236,-9.8081151745757, , , ,2.6900000572205
0.0084609643855382,0.0084437064190514,0.0084551001936901,0.0041037406693495,-0.0035830321200879,-9.8081537530965,1.0000310011577,0.00038932118157838,0.0001215109128257,2.7000000476837
0.0086709771557185,0.0086685234553547,0.0086424279472099,0.0042118205318258,-0.0034927912736751,-9.8080597489682, , , ,2.710000038147
0.008086758612134,0.008092974893684,0.0080803154252762,0.0042366013428897,-0.0034902273018655,-9.8080464640401,1.0000646109677,0.00030136616226653,0.00020500831854026,2.7200000286102
0.0091686468255806,0.0091708524463778,0.0091714507368769,0.0042781067801888,-0.0034306081929133,-9.8079949091838, , , ,2.7300000190735
0.0091090035636629,0.009117315740194,0.0091569697602006,0.0041859651852787,-0.0035122630994489,-9.8080751591108,1.000057848325,0.00029882304904494,0.00015867621967741,2.7400000095367
0.0083184334538746,0.0083653408070289,0.0083521017725743,0.0040661095494037,-0.0036318025318026,-9.8081806645313, , , ,2.75
0.0090703831197175,0.0090317306114518,0.0090717511105494,0.0040761487273289,-0.0036029548609702,-9.8081661350462,1.0000667734386,0.00033673939806836,0.00013488553387036,2.7599999904633
0.0089967016747178,0.0090234241364976,0.0090111789392578,0.0040493522111075,-0.0036377204522193,-9.80821142082, , , ,2.7699999809265
0.010290017091664,0.010315244352342,0.010322360488269,0.0040098725180071,-0.0036784675408822,-9.8082411166661,1.0000002321485,0.00036345753673416,0.00024303197878777,2.7799999713898
0.010853755372135,0.010862447457325,0.010870367783036,0.0039705516707978,-0.0037343729895405,-9.8082759890652, , , ,2.789999961853
0.011372734731975,0.011364500134584,0.011336793631127,0.0040176571743012,-0.0036683688703507,-9.8082161174283,0.99999152443178,0.00034201550253215,0.00019596674674863,2.7999999523163
0.011540180355755,0.011549241973568,0.011561191988236,0.0036917055771554,-0.0040292886117467,-9.8085863662353, , , ,2.8099999427795
0.012325995652554,0.012319777659193,0.012317174194296,0.0037682244033974,-0.003917291276425,-9.8084577802854,1.0000515789906,0.00045151422304614,7.4792505892355e-05,2.8199999332428
0.012522818912532,0.012523918147946,0.012553784746999,0.0037532380782941,-0.003963357457721,-9.808502201425, , , ,2.8299999237061
0.013149246618368,0.013126932222869,0.013142325451232,0.0037478158851682,-0.0039363347767938,-9.808495760023,1.000044104784,0.00036438886480336,6.4663679959299e-05,2.8399999141693
0.012280526088149,0.012240789653573,0.012251041148163,0.0037094023305384,-0.003986238932251,-9.8085309789538, , , ,2.8499999046326
0.012167131071065,0.012146908674165,0.012156358651597,0.0036500569719688,-0.0040293127000005,-9.8086059376287,1.0000587470768,0.00040583631513692,4.5284531937197e-05,2.8599998950958
0.011510982485177,0.011489404765936,0.011510902786421,0.0036170402812629,-0.004096073315798,-9.8086524428836, , , ,2.8699998855591
0.011643503602442,0.011630063773654,0.011630475946901,0.0035908293814776,-0.0041101947113533,-9.8086614736924,1.0000308550504,0.00035743586496042,0.00017472983295265,2.8800001144409
0.011514743071127,0.011525980190856,0.011526750314981,0.0035597538999927,-0.0041485258392476,-9.8086952849449, , , ,2.8900001049042
0.01331261412914,0.013307819240757,0.013293407976163,0.0036506267320707,-0.0040516165823478,-9.8086186667544,0.99992588018442,0.00030728097973567,0.0001857563507591,2.9000000953674
0.014570334610987,0.014545486744835,0.014554870524987,0.0036406006165219,-0.0040645361268955,-9.808633946146, , , ,2.9100000858307
0.013916716418229,0.013903083571504,0.013934257675604,0.0036344226936197,-0.0040355443139998,-9.8086071786033,0.99992089790353,0.00031242151465025,9.1887375386342e-05,2.9200000762939
0.013707873748008,0.013734026142632,0.01372432016373,0.0035233771401187,-0.0041823226906278,-9.8087265137918, , , ,2.9300000667572
0.013127111261591,0.013156249716641,0.013139147124538,0.0036071460361562,-0.0040929745723081,-9.8086673552051,0.99989818318802,0.00037070381888842,6.9736577256957e-05,2.9400000572205
0.01142082678738,0.011415162198843,0.011428409860702,0.0037187472192121,-0.0039720255038159,-9.8085457793257, , , ,2.9500000476837
0.011276062686168,0.011257775325201,0.011253333243035,0.0037819754202887,-0.0039255479742502,-9.8084888074937,1.0000070152146,0.00030444138939695,0.0002269030911916,2.960000038147
0.010219167682202,0.01021474443657,0.010204439978073,0.0037481925312311,-0.0039515303487058,-9.8085099829063, , , ,2.9700000286102
0.010452313752058,0.010425598929713,0.010427082109041,0.0035970414545962,-0.0040987200029129,-9.8086454593441,0.99999149137204,0.00031342625537375,0.00018100876523412,2.9800000190735
0.0095509941257632,0.0095781012307425,0.0095775034054551,0.0035200190758785,-0.0041734225237803,-9.8087299605153, , , ,2.9900000095367
0.0098962317731269,0.0098795820985928,0.0098998183546638,0.0035854728506724,-0.0041225467544255,-9.808691588254,0.99996661669944,0.00036363294951703,0.00020619097725351,3
0.0097934050043045,0.0097821814198512,0.009802677890066,0.00373370714947,-0.0039683694688761,-9.8085236286353, , , ,3.0099999904633
0.0077265065299717,0.00773286701698,0.0077596919956801,0.0038836750451636,-0.0038273305937987,-9.8083772626985,0.99995166401324,0.00026973987775815,0.00020400815681634,3.0199999809265
0.008125068302323,0.0081306340782549,0.0081066379055839,0.003927963645988,-0.0037907788176979,-9.8083264638098, , , ,3.0299999713898
0.0082696491616897,0.0082777488900623,0.0082528057509178,0.0038044981216151,-0.0038927211759614,-9.8084443795765,1.0000487927893,0.00040607023578568,0.00013976538123421,3.039999961853
0.0095861851478176,0.0095835120759995,0.0095525514005769,0.0038097630317851,-0.003889933346331,-9.8084281837648, , , ,3.0499999523163
0.0093434023071934,0.0093464207307048,0.0093319358131768,0.0036668327435267,-0.0040386362774443,-9.8085877435513,0.99999296989887,0.00024678197659772,0.00010205808510323,3.0599999427795
0.0084793183652662,0.0084835464823429,0.0084726653812516,0.0036643914334322,-0.0040225872294585,-9.8085901773248, , , ,3.0699999332428
0.0092221378420227,0.0092431165362105,0.0092185024228102,0.0036683141813932,-0.0040407899133754,-9.8085986510619,1.00008418925,0.00029680440734437,0.00023214858323577,3.0799999237061
0.0093327410127994,0.0093311171553942,0.0093311722157558,0.0035803528567177,-0.0041354791880335,-9.8086863238388, , , ,3.0899999141693
0.0089305819392887,0.0089200038671906,0.0089301692933173,0.0035915414046718,-0.0041191137559647,-9.8086547770734,0.99987166425985,0.00031026641842726,7.8793555737115e-05,3.0999999046326
0.0090305469504641,0.0090251351484515,0.0090177763277781,0.0036555777814803,-0.0040534063861854,-9.8085777238358, , , ,3.1099998950958
0.00809113715095,0.0080969928832304,0.0080892920600459,0.003626915784262,-0.0040840924878979,-9.808626666519,0.99992640647796,0.00033818033827302,9.1026394415374e-05,3.1199998855591
0.0072205673357126,0.0072342672021488,0.0072473251438173,0.0036327460402249,-0.0040757125526281,-9.8086445514437, , , ,3.1300001144409
-11.076409260167,-0.61272527793823,-11.078166708882,-0.034693818768538,-0.81754732624997,-9.770549823852,0.99394345259277,-0.11026023927298,0.0062139390677989,3.1400001049042
-10.525296560753,-0.55360670628399,-10.526997958744,-0.17682613811752,-1.8446920877754,-9.6282507021564, , , ,3.1500000953674
-10.000762296811,-0.49950319598609,-10.002379516058,-0.41162149419087,-2.7823326994617,-9.3930172834433,0.95069036931754,-0.3060812818093,0.049477902401647,3.1600000858307
-9.5023143344699,-0.45077786084185,-9.5038748251928,-0.72065493582549,-3.6205824339742,-9.0839175135209, , , ,3.1700000762939
-9.0280535618536,-0.40634594764592,-9.0295020075176,-1.0863673053468,-4.3548674753025,-8.7181292758667,0.87913087434862,-0.4609783003715,0.12108767117578,3.1800000667572
-8.5781076192749,-0.36696663236275,-8.5794609101674,-1.4930736797078,-4.9847899330996,-8.3109716541201, , , ,3.1900000572205
-8.1498799900843,-0.33081807137111,-8.1511442255265,-1.9277212843857,-5.5137876146038,-7.8765425091927,0.79189677815563,-0.57388181214038,0.20834694268396,3.2000000476837
-7.7434181508711,-0.29869842444373,-7.7446959863634,-2.3782471954954,-5.9464417810581,-7.4258549541091, , , ,3.210000038147
-7.3569129116415,-0.26943915384513,-7.3580778350999,-2.8352351174667,-6.2895647377224,-6.9686999334894,0.69911977709748,-0.64839328782752,0.30128973009951,3.2200000286102
-6.9892791949481,-0.24268164689231,-6.9904149357676,-3.2908791800832,-6.5507993696852,-6.5130539628433, , , ,3.2300000190735
-6.639024184044,-0.2176399252664,-6.6400856515551,-3.7387475805344,-6.7379454128452,-6.0650174217462,0.60753907073839,-0.69041177769717,0.39289110689122,3.2400000095367
-6.3082901971235,-0.19700945065732,-6.309256607356,-4.174212069055,-6.8592474021685,-5.6296831781051, , , ,3.25
-5.9922307449414,-0.17671323223532,-5.9931877837968,-4.5935035074396,-6.9224258080602,-5.2104924110829,0.52120634010878,-0.70621829008417,0.47918441051605,3.2599999904633
-5.6929179230688,-0.1592751502795,-5.6937954726981,-4.9939680063958,-6.9350492600527,-4.810061310092, , , ,3.2699999809265
-5.4069944629025,-0.14206487920739,-5.4078735000693,-5.3739806266534,-6.9042586224509,-4.4302202202078,0.44272238043604,-0.70227948564078,0.55758279469741,3.2799999713898
-5.1361407614988,-0.12723607783884,-5.1369531721751,-5.7323049204878,-6.8363204697559,-4.0718529284193, , , ,3.289999961853
-4.87833233385,-0.11335682397383,-4.879125295651,-6.0686469182313,-6.7374679175962,-3.7355981170492,0.37294636073419,-0.6836480007795,0.62733098215374,3.2999999523163
-4.6334680904586,-0.10092171606694,-4.6342044219948,-6.3828000092193,-6.6128468906363,-3.4213759956453, , , ,3.3099999427795
-4.4013142235094,-0.090118399345649,-4.4019869933333,-6.6752000159062,-6.4673345370808,-3.1289179303357,0.31229092759819,-0.654979422635,0.68797589564155,3.3199999332428
-4.1816072213835,-0.081245331093559,-4.1823097002434,-6.946492050706,-6.3051730107393,-2.8576388623283, , , ,3.3299999237061
-3.9731141053379,-0.073365082485053,-3.9737045650721,-7.1973770298631,-6.1300155597828,-2.6067136351541,0.26009657095186,-0.62011628918943,0.74015732985848,3.3399999141693
-3.7744713648827,-0.065970874883811,-3.7750618375968,-7.4290124270561,-5.9453215093523,-2.3754469445442, , , ,3.3499999046326
-3.5857523317306,-0.05917940470269,-3.5863434381435,-7.6421347786139,-5.7535904611512,-2.1624639365755,0.21572766024503,-0.58139731582561,0.78439321627619,3.3599998950958
-3.4071686822187,-0.053751359206519,-3.4077234686936,-7.8379510427157,-5.5574136431123,-1.9670022211108, , , ,3.3699998855591
-3.2367322572858,-0.048134466969957,-3.2372482773202,-8.017500432434,-5.358703474386,-1.7878010030061,0.17826957275314,-0.54099477989132,0.82191364303339,3.3800001144409
-3.0734295197071,-0.041765123233098,-3.073921859255,-8.1817327826265,-5.1590777271683,-1.6236479930476, , , ,3.3900001049042
-2.9189385028341,-0.036485756757564,-2.9194059794203,-8.3319425317438,-4.9602288244472,-1.4737330626506,0.1469730161893,-0.50047613779091,0.85326604204021,3.4000000953674
-2.7710122723066,-0.030653641234944,-2.7714489669378,-8.4691124896909,-4.7632326826471,-1.3369262457382, , , ,3.4100000858307
-2.6317891864015,-0.026563318201849,-2.6321779911801,-8.5939799276276,-4.5689554635756,-1.2120295935967,0.12100067541821,-0.46064577761394,0.8791517681445,3.4200000762939
-2.5005340731294,-0.023918872161903,-2.5009360209257,-8.7079318422226,-4.378548105289,-1.098506239185, , , ,3.4300000667572
-2.374312882332,-0.020018544070455,-2.3746983161042,-8.8115464213927,-4.1922686489413,-0.99507876268722,0.099217818670724,-0.42249875515301,0.90090867873301,3.4400000572205
-2.2560756812255,-0.018128891940982,-2.2564381373506,-8.905730877996,-4.0107383525157,-0.901001159842, , , ,3.4500000476837
-2.1440068767089,-0.016725696919771,-2.1443964920183,-8.991288443098,-3.8343785392913,-0.81554684468363,0.081402592512199,-0.38633673030706,0.91875691118735,3.460000038147
-2.0369595520234,-0.014898067051193,-2.0373147183705,-9.0687804481622,-3.6632535754078,-0.73776622243954, , , ,3.4700000286102
-1.9355245627817,-0.013544602881157,-1.9358622100855,-9.1392043512066,-3.4979687283143,-0.66736356847538,0.066650579156046,-0.35240494289521,0.93346993161134,3.4800000190735
-1.8370776348261,-0.010286341482586,-1.8373879233116,-9.2030123727265,-3.3382370150232,-0.60336257137073, , , ,3.4900000095367
-1.7435755459914,-0.0073716662176437,-1.7438594110379,-9.2609981345437,-3.1845284416785,-0.54550985504623,0.05450707223179,-0.32069685985709,0.94551138472075,3.5
-1.655925877737,-0.0057143617731548,-1.6561849429998,-9.3134911926086,-3.0367357017767,-0.49311420970904, , , ,3.5099999904633
-1.5713818497285,-0.0030339378587607,-1.5716203647007,-9.3611344033132,-2.8946625474264,-0.44571704250554,0.044554247949959,-0.29149722089003,0.95546577871848,3.5199999809265
-1.490842905831,-0.00030131356430886,-1.4910673146355,-9.4043444397431,-2.7584453833808,-0.4028658750372, , , ,3.5299999713898
-1.4151664464493,0.0013590468751305,-1.4153903253882,-9.4434763486773,-2.6279160366332,-0.36416252299192,0.036390576275555,-0.26468747654865,0.96369072935482,3.539999961853
-1.3446816699504,0.0015221942106708,-1.3449042735293,-9.4787229882,-2.5026269639294,-0.32890878590611, , , ,3.5499999523163
-1.2767659460238,0.0025535310643848,-1.2769846637565,-9.5107162563091,-2.3827774355865,-0.29710728269789,0.029802515598055,-0.23986423752941,0.9703377935431,3.5599999427795
-1.2135452278696,0.0022391397859056,-1.2137348040753,-9.5394718119355,-2.2680804073669,-0.26821832964691, , , ,3.5699999332428
-1.1507655111692,0.004591949895504,-1.1509486123033,-9.5654434012837,-2.1584470199837,-0.242054614798,0.024278127088689,-0.21731050760774,0.97583141195514,3.5799999237061
-1.0917131454291,0.0061806457621697,-1.0919181924709,-9.5889950796232,-2.0537940144625,-0.218482703427, , , ,3.5899999141693
-1.0366827499008,0.0065911670723614,-1.036873739511,-9.6102571089368,-1.953879726845,-0.1971311059569,0.019853548883243,-0.19670494860227,0.98031996393266,3.5999999046326
-0.98263619632692,0.008780348017274,-0.98277400273297,-9.6294695297704,-1.8585799261981,-0.17788498192689, , , ,3.6099998950958
-0.93321546564542,0.0088404575774914,-0.933391565831,-9.6468283377179,-1.7678070803166,-0.16051654038716,0.016217164098141,-0.17797747694085,0.98387881477057,3.6199998855591
-0.88581834257444,0.0093664762085499,-0.88595771695705,-9.6625732778104,-1.6811457718125,-0.14479568134115, , , ,3.6300001144409
-0.84098777567001,0.0096190784866033,-0.84111505786283,-9.6768221346085,-1.5986117456481,-0.13063104891478,0.013118944100089,-0.16085918946728,0.98677301293123,3.6400001049042
-0.79878432807788,0.0094770953907537,-0.79893205743624,-9.6896617754848,-1.5200068063927,-0.11784474800672, , , ,3.6500000953674
-0.75810395660795,0.0099334287472767,-0.7581856146382,-9.701327391274,-1.4452188917768,-0.10633540862357,0.010740377125223,-0.14556306380444,0.989284762026,3.6600000858307
-0.7198184250148,0.0099220848612973,-0.7199212991877,-9.7118039680999,-1.3739937575287,-0.095950858094391, , , ,3.6700000762939
-0.68305919589044,0.010302687478256,-0.68318427119596,-9.721246274977,-1.3060934695947,-0.08649482306383,0.0087964795524369,-0.13145760589164,0.99133683109834,3.6800000667572
-0.64734550035173,0.011477814106903,-0.64745261441641,-9.7299241071248,-1.2415014568395,-0.078093140239413, , , ,3.6900000572205
-0.61477634383686,0.011171151652491,-0.61489738149622,-9.7377061356655,-1.1800954718259,-0.070462542183647,0.0071748032653608,-0.11876618958873,0.99288477667487,3.7000000476837
-0.5825394158367,0.012263907857118,-0.58266074844953,-9.7446942346386,-1.1217574185483,-0.063601611479401, , , ,3.710000038147
-0.55266537287743,0.012444722186787,-0.55275896676133,-9.7509428178071,-1.0659868639594,-0.057266662300354,0.0058855136190936,-0.10735619875237,0.99417455519174,3.7200000286102
-0.52436654211059,0.012580084830819,-0.52444944365918,-9.7565010730127,-1.0127355199396,-0.051433341081909, , , ,3.7300000190735
-0.49777708611948,0.01239754368023,-0.49787030319148,-9.7615615753227,-0.96234627043295,-0.046267396655727,0.004725548598639,-0.096962566225122,0.99523275002121,3.7400000095367
-0.47226650079664,0.012455729915551,-0.47231764912446,-9.7661860491635,-0.91471630011284,-0.041726964054666, , , ,3.75
-0.44748094597749,0.013063958451522,-0.44752947472033,-9.7702914625536,-0.86899960848058,-0.037442478585055,0.0039039991407465,-0.087530394522945,0.99621707172029,3.7599999904633
-0.42297958649922,0.014582000362005,-0.42305114800175,-9.7740129346747,-0.82574325390691,-0.033657029107187, , , ,3.7699999809265
-0.40137593610282,0.014338002489667,-0.40144241036967,-9.7774343325255,-0.78441994491825,-0.030263265433907,0.0031235851824545,-0.079032008156255,0.99692287273136,3.7799999713898
-0.38095711262325,0.014031119068513,-0.38102932628465,-9.7805914110057,-0.74534589186314,-0.027282789562364, , , ,3.789999961853
-0.36174097688638,0.013548188154406,-0.36181657802745,-9.7832625530666,-0.70819317464655,-0.024440638751064,0.0025289239152401,-0.07131513858376,0.99747350209752,3.7999999523163
-0.34281502810159,0.013728684002726,-0.34289574534104,-9.7857867438975,-0.67266838158313,-0.021898675200041, , , ,3.8099999427795
-0.32517010184872,0.013591141148132,-0.3251963509385,-9.7880627575236,-0.63931259263097,-0.019740270601894,0.0021431715782168,-0.06442173122559,0.99789649285955,3.8199999332428
-0.30750562627825,0.014340384098102,-0.30756755748028,-9.7900357848556,-0.60712406543303,-0.017621728869581, , , ,3.8299999237061
-0.29097155419952,0.014808432786927,-0.29101976722685,-9.7919992824997,-0.57707951286635,-0.015879550162179,0.0016320019832103,-0.058165915891258,0.99833602205115,3.8399999141693
-0.27464843451843,0.015842845473588,-0.27469287631152,-9.7936557818625,-0.54800125256836,-0.014247360677653, , , ,3.8499999046326
-0.26112107820572,0.014874843213111,-0.26114876624441,-9.7951784704009,-0.52114373818131,-0.012818096935616,0.0013656627057327,-0.052405142192044,0.99862777602781,3.8599998950958
-0.2466822459209,0.015562934285598,-0.24669314764265,-9.7964822945361,-0.49503837007294,-0.0114348602641, , , ,3.8699998855591
-0.23289265778909,0.016244213426108,-0.23291512411535,-9.7976739249106,-0.46995709591934,-0.010132589274165,0.0011001628560738,-0.047430442455993,0.99888556530431,3.8800001144409
-0.22095957669638,0.015685547725297,-0.22102723462581,-9.7988105604993,-0.4466481039995,-0.0090917864380157, , , ,3.8900001049042
-0.20854669014483,0.01633070402535,-0.20857446247037,-9.7996401757975,-0.42445981510178,-0.0079960354498745,0.00088873083864187,-0.042812524280387,0.99902758918703,3.9000000953674
-0.19835826490126,0.01525002013457,-0.19840382457405,-9.8005922322564,-0.40327939210512,-0.0071585915391577, , , ,3.9100000858307
-0.18795132487132,0.01502386524296,-0.18795602572454,-9.8014712436371,-0.38282266413175,-0.0063810787263313,0.00076504196674812,-0.038578555902776,0.99930454292772,3.9200000762939
-0.17810325497458,0.01468779199536,-0.17815681618484,-9.8021536504579,-0.36373513374583,-0.0056084442975737, , , ,3.9300000667572
-0.1681668414623,0.015020122952634,-0.16820402633702,-9.8027669165148,-0.3457553615023,-0.0049540727208164,0.00068126015442306,-0.034901536856684,0.99941094607531,3.9400000572205
-0.15926880815881,0.014742983756828,-0.15931813047198,-9.8033409075514,-0.32822937348919,-0.0042791453221774, , , ,3.9500000476837
-0.15063697748828,0.014716206972156,-0.15064812135167,-9.8039212747378,-0.31174312483747,-0.0037929031225752,0.00056158232812685,-0.031383651719494,0.99954819202414,3.960000038147
-0.14330647366765,0.013797764161473,-0.14332272509032,-9.8043711605781,-0.29601092295592,-0.0032777593471023, , , ,3.9700000286102
-0.13440162108896,0.014840800270828,-0.13440837958719,-9.8049067081859,-0.28129143767658,-0.0029512666579157,0.00040066621890195,-0.028437475348978,0.99954825122968,3.9800000190735
-0.1258297392846,0.015989700604756,-0.12583389421262,-9.8054390448872,-0.26737901717052,-0.0026867523302719, , , ,3.9900000095367
-0.11856620057985,0.016120403539262,-0.11856944389537,-9.8056957625004,-0.25405498681146,-0.0022453575394972,0.00029307484314751,-0.025568771127511,0.99965444264527,4
-0.11200791827842,0.015950042584107,-0.11204332567635,-9.805932308387,-0.2414534387984,-0.0018408852159552, , , ,4.0100002288818
-0.10700560138843,0.014607781961644,-0.10703053031784,-9.8062348666017,-0.22891482236741,-0.0015597791918545,0.00021437377573367,-0.023247471897314,0.99977894887474,4.0199999809265
-0.099335994268977,0.016205971161024,-0.099326664875565,-9.8064407031941,-0.21688155885603,-0.0011993729846735, , , ,4.0300002098083
-0.093147944844686,0.016581517094485,-0.093204936173656,-9.8066132055815,-0.20628112055489,-0.0009429450806011,0.00025891254305129,-0.020869971536661,0.99971859588591,4.039999961853
-0.086813679644326,0.017416542737444,-0.086834596634498,-9.8069196104278,-0.19557780329824,-0.00079824551324632, , , ,4.0500001907349
-0.082065039795261,0.01697856321678,-0.082110351493247,-9.8072173355965,-0.18628144013442,-0.00070980054100033,0.00021683738099917,-0.018832537914033,0.99975853323438,4.0599999427795
-0.076314313285886,0.017787001016133,-0.076319283289772,-9.8074368617567,-0.17662497930672,-0.00059262942486642, , , ,4.0700001716614
-0.0708802493489,0.018542962015298,-0.070897227055091,-9.8075879320822,-0.16837744543102,-0.00047861615341055,0.00015984794305182,-0.01688361793326,0.999868916723,4.0799999237061
-0.066273865714971,0.018656222182979,-0.066324717883585,-9.8078283975126,-0.16084197381837,-0.00043942288304974, , , ,4.0900001525879
-0.060525524972548,0.020160422126165,-0.060513233640038,-9.8079730246903,-0.15249501643854,-0.00032380278864057,0.00014514264218618,-0.015289504057742,0.9998675288121,4.0999999046326
-0.057092782148197,0.019523631339619,-0.057127855713062,-9.8081723293378,-0.14466465984248,-0.00029165656988654, , , ,4.1100001335144
-0.053390174185229,0.019360788923082,-0.053414598275471,-9.8083947590636,-0.13727170987586,-0.00029574006228935,0.00011004802965177,-0.013828278509776,1.0000108004707,4.1199998855591
-0.049415430361842,0.019762299349799,-0.049437548728549,-9.8084269158881,-0.13518890277517,-0.00025727320088558, , , ,4.1300001144409
-0.045986559770052,0.019764935715176,-0.046012102476856,-9.8086734869935,-0.12513843384978,-0.00022793050577974,3.7228641882048e-05,-0.012493980189872,1.0000199563914,4.1399998664856
-0.043073923470806,0.019316811672647,-0.0430961006893,-9.8085280176079,-0.12188231251311,-2.5280655847573e-05, , , ,4.1500000953674
-0.040166006329395,0.019182577361811,-0.040172061232204,-9.8087033930604,-0.11394934839341,-1.6959350552168e-05,4.874251225522e-05,-0.011152608182335,0.99990291994667,4.1599998474121
-0.036464596784813,0.019817586028009,-0.036480745340246,-9.8087326476633,-0.10998216413837,7.4989094251237e-05, , , ,4.1700000762939
-0.034021055576353,0.019559696304693,-0.034008227355967,-9.8088908527391,-0.10203412400843,7.4735362707327e-05,1.5156287034539e-05,-0.010140453948804,0.99997776598681,4.1799998283386
-0.030330639581733,0.020480700670045,-0.030350161070002,-9.8089947828203,-0.099376625954861,-9.4132368368313e-06, , , ,4.1900000572205
-0.028849742556637,0.019393617210844,-0.02886100306004,-9.8090867592333,-0.092204331631066,6.3101111935521e-05,2.8370764052078e-07,-0.0092166032394516,0.99995422999976,4.1999998092651
-0.025306399286951,0.020626377009223,-0.025284344894436,-9.8090069548734,-0.089555244845795,0.000181333032362, , , ,4.210000038147
-0.022834959324398,0.020819664488987,-0.022876556993144,-9.8090359006146,-0.083298841558857,0.00026224905771978,3.4324001695838e-05,-0.0083222937341624,0.99997604789993,4.2199997901917
-0.02019795803425,0.021214971171799,-0.020185438203459,-9.8091140592559,-0.08079779857704,0.00025092503190556, , , ,4.2300000190735
-0.019315592529932,0.020039403348154,-0.019321704331141,-9.8091016867272,-0.080792084024307,0.00023064973876108,4.9138112474059e-05,-0.00752453861381,0.99995132334579,4.2399997711182
-0.016345192190695,0.021015217323337,-0.016355868698814,-9.8089545238048,-0.071802313676787,0.00050721381180265, , , ,4.25
-0.014679140699159,0.02081395293563,-0.014727863839119,-9.8089186011922,-0.068912530788937,0.0006239282375519,0.00012437055716844,-0.0067309209860423,0.99993970774686,4.2600002288818
-0.013314437656538,0.020361814600243,-0.013309109856488,-9.8088189544962,-0.068834092669221,0.00072517729329487, , , ,4.2699999809265
-0.011891744735217,0.020241933867139,-0.01187946633781,-9.8089114469109,-0.061680489735895,0.00070012661583728,1.6890503322894e-05,-0.006186480014399,0.99995898593567,4.2800002098083
-0.010827327455669,0.019619403696947,-0.010846692440529,-9.8089542143263,-0.058959182977553,0.00068838634138981, , , ,4.289999961853
-0.0097633493716743,0.019113498275815,-0.0097739017695844,-9.8089611154005,-0.055339146937283,0.00072077181556621,7.1578268959484e-05,-0.005451520805422,1.0000620882676,4.3000001907349
-0.008455375413128,0.019075352932755,-0.0084538579955727,-9.8089602675868,-0.053076431526729,0.00077282597192936, , , ,4.3099999427795
-0.0055219092125564,0.020527706689596,-0.005535789427161,-9.8088941251152,-0.049433750491121,0.00084871206166089,0.000119201547565,-0.0050329579462973,1.0000108865394,4.3200001716614
-0.0037355885279697,0.020942894597181,-0.0037385792465168,-9.8089285595438,-0.047811108095283,0.00083168295283409, , , ,4.3299999237061
-0.0017452617347212,0.021776316200756,-0.0017752220062597,-9.8090266604877,-0.04789176567174,0.00074757437413171,4.7032667288201e-05,-0.0044349976928361,1.0000218756616,4.3400001525879
0.00029736981255954,0.022691905965841,0.00031028369575111,-9.8090372434717,-0.042808647025376,0.0007832961330399, , , ,4.3499999046326
0.0010527005035804,0.02220054460419,0.0010713148188663,-9.8090474831885,-0.040939423632702,0.0007923989982295,5.4723535450061e-05,-0.0041230212136695,0.99998698411415,4.3600001335144
0.00094679519400206,0.021069815034295,0.00091933292644124,-9.8090897993496,-0.0409596583602,0.00077921069108626, , , ,4.3699998855591
0.0024943615925219,0.021714255095161,0.0024885744550109,-9.809061066463,-0.040967239607957,0.00076645923766428,-1.0794476516473e-05,-0.0037700091230505,1.0000226148062,4.3800001144409
0.0034811510691396,0.021569424350034,0.0034755265544742,-9.8091086689663,-0.035922518105256,0.00075186743535698, , , ,4.3899998664856
0.0047688540309804,0.02203648465083,0.0047584805836061,-9.8092750601122,-0.033429784815688,0.00063482268385404,5.3126607523339e-05,-0.0033540990188856,1.0000655781693,4.4000000953674
0.0053092302169933,0.021894169710865,0.0053257585673105,-9.809197033362,-0.033363866103359,0.00068300419573598, , , ,4.4099998474121
0.0066439436065042,0.022077639532288,0.0066370836276956,-9.8090810247139,-0.033237351527044,0.00081693413301836,-4.8748567441109e-06,-0.0029524788399476,0.99994710600912,4.4200000762939
0.0087452110048174,0.023575810170468,0.008736257321208,-9.8090575092613,-0.033239742749378,0.00080790331729993, , , ,4.4299998283386
0.010138889501439,0.024350756488983,0.010142127175644,-9.8090687093354,-0.02815054194199,0.00081636092408962,4.3518985401436e-05,-0.0027215324193273,0.99993798623973,4.4400000572205
0.010191052946565,0.023348154843263,0.010178754299853,-9.8092171363816,-0.025668400267186,0.00072733240584693, , , ,4.4499998092651
0.010317289194044,0.023265891320466,0.010282871294709,-9.8091032054937,-0.025526668849491,0.00085558395815092,-6.9933450994397e-05,-0.002387549030571,0.99998475104764,4.460000038147
0.01034572204262,0.022303650690588,0.010355594626307,-9.8089758027064,-0.025429797805449,0.0009611319748764, , , ,4.4699997901917
0.011736132136667,0.022945793622324,0.011742980454473,-9.8089676941932,-0.025410603170696,0.00097168330551655,-2.2225697725933e-06,-0.0022501350161057,1.0000445333529,4.4800000190735
0.011973244866461,0.022597103853833,0.011920270968623,-9.808974988433,-0.025444432609598,0.00097644053167368, , , ,4.4899997711182
0.012803819647117,0.023181745241438,0.012825512420385,-9.8089200193407,-0.02537375061192,0.0010172337647874,-4.8638174029688e-06,-0.0019826951093339,1.000020850147,4.5
0.013386217521761,0.023163451737087,0.013366651301054,-9.8088227272652,-0.020179470575643,0.0011367211276149, , , ,4.5100002288818
0.014113977141283,0.023204003663696,0.014084383629228,-9.8088936436508,-0.017465112547768,0.0010817284308133,6.8519817013262e-06,-0.0018585776423219,1.000079708095,4.5199999809265
0.014670784498576,0.023864376394444,0.014704168119651,-9.8090760907301,-0.017657872274316,0.00088687467892459, , , ,4.5300002098083
0.014339603659196,0.022817471816779,0.014341256340658,-9.8091228701775,-0.017715332856854,0.00084863296530629,2.8168850419129e-05,-0.0015911179912736,0.99995797281815,4.539999961853
0.014122486848748,0.022221410758945,0.01411291276461,-9.8090951753533,-0.017686730240121,0.00086239522737069, , , ,4.5500001907349
0.013168999106278,0.020490875272209,0.013176410725717,-9.8090644332763,-0.01764692156837,0.00092499884826893,2.9577076765431e-05,-0.0014399101761111,0.99999388903001,4.5599999427795
0.012247156814654,0.019162511607398,0.012245938673245,-9.8090322405723,-0.017629796325148,0.00092414056218446, , , ,4.5700001716614
0.014192408513984,0.021075561851767,0.014162007100763,-9.8089859934315,-0.017571119775654,0.00098126439858512,-3.6967438797836e-05,-0.0012542242736931,0.99994695653658,4.5799999237061
0.014601684723817,0.020605736439368,0.014586232176685,-9.8089417840264,-0.01751893401965,0.0010184345077865, , , ,4.5900001525879
0.014898712109405,0.021371468143882,0.014891194273873,-9.8089191217725,-0.012423256343816,0.0010832760891921,-2.8096388539949e-06,-0.001144931452908,1.0000240061482,4.5999999046326
0.016503742580753,0.021959979694516,0.016503410837952,-9.8088201326261,-0.01067634070039,0.0011672152209036, , , ,4.6100001335144
0.016672900391787,0.022650770299617,0.016683027105638,-9.8088312524182,-0.010697305227639,0.001170569627594,7.1308688633566e-05,-0.0010909235037642,0.99994691964215,4.6199998855591
0.01879894490013,0.023676108837477,0.01881755608907,-9.8089543065297,-0.010809658546878,0.0010270680652376, , , ,4.6300001144409
0.017437712853522,0.022906825099013,0.017424563849076,-9.8089018535849,-0.010752977868627,0.0010755058275575,-4.5162307794977e-05,-0.00097257539969291,0.99994923708037,4.6399998664856
0.018382900542252,0.022636143071992,0.018368137233806,-9.8087573410061,-0.010620058639051,0.0012201785816855, , , ,4.6500000953674
0.018604760123144,0.023524990857978,0.018630921571215,-9.8086540717923,-0.010513864435045,0.0013313259411463,1.2562826047725e-05,-0.00091755898840249,1.0000505489664,4.6599998474121
0.01903712408323,0.02247698017873,0.01905053462808,-9.8086393781999,-0.010499616118462,0.0013391492170549, , , ,4.6700000762939
0.018803994742253,0.022303918413218,0.018828349177969,-9.8086673104884,-0.010547482190181,0.0013228971913184,-1.3654696854887e-05,-0.00088739070832698,1.0000473008661,4.6799998283386
0.019416895374867,0.021852586915528,0.019421264792117,-9.808780667343,-0.01063668867115,0.0012074869251079, , , ,4.6900000572205
0.01855705668088,0.020997560436823,0.018570819474594,-9.8087330103882,-0.010597692828529,0.0012651670640576,-3.7770123464271e-05,-0.00073688633500596,1.0000271300068,4.6999998092651
0.018321898852208,0.020736105311963,0.018329205707466,-9.8087090179445,-0.010557893526812,0.0012748028328154, , , ,4.710000038147
0.017144040099863,0.020607545647031,0.017135378819842,-9.8086718165505,-0.010546586859798,0.0013094137887668,-1.8532394783193e-05,-0.00079173411536256,0.99997844583926,4.7199997901917
0.017143584139033,0.020618769834286,0.017134313574778,-9.8087547351995,-0.010613566692595,0.0012525787162703, , , ,4.7300000190735
0.016809318963665,0.020258964258051,0.016799741010822,-9.8088776665584,-0.010761744190204,0.0011111623794377,8.0541689328909e-06,-0.00065117728770454,0.99990003780795,4.7399997711182
0.018427677425822,0.021889473541244,0.018472362917979,-9.8088756884162,-0.0071457390956188,0.0011291216092327, , , ,4.75
0.018056976288917,0.021484093933893,0.018039702284671,-9.8087819731197,-0.004872781463891,0.0012122567785582,2.7760509947187e-05,-0.00062021280500972,0.99989441767649,4.7600002288818
0.017937423926982,0.021397762940892,0.017932870190424,-9.8087988413808,-0.0048976062891505,0.0012065886829972, , , ,4.7699999809265
0.016963053265243,0.020431418118243,0.016950855626321,-9.8086389218862,-0.004732286603825,0.0013599540145213,-4.1246009878675e-05,-0.00044374023741355,0.99994953327189,4.7800002098083
0.015766728237736,0.019216793546317,0.01573967915822,-9.808661395074,-0.0047460632076447,0.0013332112710043, , , ,4.789999961853
0.017716455793732,0.017737406872566,0.01776919165089,-9.8086251129346,-0.0046824281920111,0.0013788292819455,2.2615190728298e-05,-0.00053365768383639,1.0000003431283,4.8000001907349
0.01776102064706,0.017814747447252,0.017765146460871,-9.8087279810796,-0.0048172647932823,0.0012707040223088, , , ,4.8099999427795
0.01706872976963,0.017067073170473,0.017046633156706,-9.8087905692751,-0.0048676752899442,0.0012250528699259,-2.742232302929e-05,-0.00051191318017025,1.0000615181059,4.8200001716614
0.016962725616171,0.016976947809722,0.016963938597429,-9.8089041078975,-0.004965536965929,0.0011205785647516, , , ,4.8299999237061
0.01612955435163,0.016171085964618,0.016134435803789,-9.8087861613596,-0.0048577988487651,0.001213533101736,9.9134010743057e-05,-0.00046026670437286,0.99998321126397,4.8400001525879
0.018632576096413,0.018672693682567,0.0186423102092,-9.8089084211901,-0.0049762515010721,0.0011037828562205, , , ,4.8499999046326
0.019778330953809,0.019784652118286,0.019788814780304,-9.8089365432387,-0.0050241860464343,0.0010712427286351,3.6748792087351e-05,-0.00042351610567156,0.99998631016513,4.8600001335144
0.018394666662877,0.018449250129275,0.018405445638153,-9.8088732330918,-0.0049703658842029,0.0011406464234963, , , ,4.8699998855591
0.01822679236979,0.018278809234378,0.018235596958563,-9.8089800546944,-0.0050315952505745,0.0010365622543446,2.9470044252089e-05,-0.00047016620926467,0.99995618292798,4.8800001144409
0.01906903259152,0.019131337908471,0.019074554768048,-9.8090022809216,-0.0050875686768864,0.00099557367260197, , , ,4.8899998664856
0.018879063743004,0.018915130168334,0.018893328425589,-9.808753929096,-0.0048494021544011,0.001239594091423,1.3578536943486e-06,-0.00044546168669674,1.0001102526587,4.9000000953674
0.019610885400281,0.019651226771825,0.019627053353126,-9.8088176569006,-0.0048826239653835,0.0012041794707976, , , ,4.9099998474121
0.018256604950725,0.018268336728635,0.018252256411309,-9.8088804878287,-0.0049539195749854,0.0011434874870476,-4.3596480961196e-05,-0.00049707073308109,1.0000756494842,4.9200000762939
0.019180493384913,0.019206636798178,0.019200212106736,-9.8087996371602,-0.0048763506991772,0.0011854665613344, , , ,4.9299998283386
0.018562962092877,0.018572446864574,0.018568159162835,-9.8088185154211,-0.0048848693335662,0.0011860937078492,4.1604799724126e-05,-0.00059716323507034,0.99995143456604,4.9400000572205
0.019676313056998,0.019711151123375,0.019690759218212,-9.8088203207412,-0.0049178152429278,0.0011720337406865, , , ,4.9499998092651
0.020351473781006,0.020405197137253,0.020359660003012,-9.8089390344988,-0.0050243732902446,0.0010449562675901,0.00010100802386173,-0.00052844911148837,0.99996591999757,4.960000038147
0.020301485841768,0.020314367530409,0.02029817271283,-9.8090599680303,-0.0051276050934134,0.00095334085276299, , , ,4.9699997901917
0.020172836397805,0.020180839416064,0.020178520760985,-9.8091174367369,-0.0051970898391168,0.00089543958570843,2.3313376978186e-05,-0.00045656991111146,0.99996288594477,4.9800000190735
0.020305776747707,0.020360323496792,0.020299524333261,-9.8091840892777,-0.0052480187884561,0.00082757684996007, , , ,4.9899997711182
0.020575047710518,0.020611023667324,0.020559774979578,-9.8091316662166,-0.0052007129260155,0.00088029288948204,-6.2738230587512e-06,-0.0005113707996789,0.99994317968535,5
0.021430025671194,0.021455360990517,0.021426052637683,-9.8090750459568,-0.0051358071331526,0.00094990845506626, , , ,5.0100002288818
0.021338203903443,0.021372028797609,0.021308281926677,-9.8090226109413,-0.0051005716711693,0.00098981840277465,-0.00017283613432886,-0.00047384991415631,0.99994327161471,5.0199999809265
0.021806409654481,0.021829733344429,0.021814647285602,-9.8090538736455,-0.0051552477700287,0.00092663495600103, , , ,5.0300002098083
0.021145011102938,0.021153885564038,0.021112029344506,-9.8090556462373,-0.0051410777293307,0.00095206210749342,-4.1405695019763e-05,-0.0005209872118337,0.99998575189544,5.039999961853
0.021486597287269,0.021534713747617,0.02149800748933,-9.8090047926347,-0.0051089499127926,0.0010011239500762, , , ,5.0500001907349
0.021352211320131,0.021409493580442,0.021379853047511,-9.8090512717028,-0.0051259162754428,0.00094528235301102,-6.2145362370292e-05,-0.0005750153595545,1.0000577412438,5.0599999427795
0.021794223960694,0.021798983215083,0.021806483004199,-9.8090051272818,-0.0050775863691556,0.00098786025604701, , , ,5.0700001716614
0.022340388792975,0.022335961190549,0.022327625866436,-9.8089743673792,-0.0050430691360579,0.0010334652539732,1.2380783841892e-05,-0.00046186765727586,1.0000597798076,5.0799999237061
0.023256156879121,0.023302081505257,0.023266200193208,-9.8088156876948,-0.0048856258693068,0.0011741431599044, , , ,5.0900001525879
0.023089610881904,0.02307142914337,0.023062942282697,-9.8088164888747,-0.0048987198736998,0.0011873766045688,3.8022985415004e-05,-0.00051149976814304,1.0000289692091,5.0999999046326
0.022767173691276,0.02282746028781,0.022777548513381,-9.8087952320116,-0.004876747011656,0.0012330568222621, , , ,5.1100001335144
0.023186048937813,0.023176711385551,0.023200091082592,-9.8088101254196,-0.0048624352292041,0.0011883617309051,4.6165845147485e-05,-0.00042514852995208,1.0000314599369,5.1199998855591
0.021985289239676,0.022004554476511,0.021991128047971,-9.8089222232618,-0.0050083549920114,0.0010874555549036, , , ,5.1300001144409
0.021206369269392,0.021252105472257,0.021206347862274,-9.8089614709403,-0.0050350858611073,0.0010339510003672,-7.5500652117762e-05,-0.00039300336113049,0.99993146866339,5.1399998664856
0.021718977713971,0.021732114629143,0.021702159691646,-9.8088320587151,-0.0049039076288293,0.0011817320879146, , , ,5.1500000953674
0.020751321755165,0.020759764642084,0.020743611247446,-9.8088622352138,-0.0049398186323646,0.0011372024401909,-6.1294516570833e-05,-0.00050507793909252,1.0000515636757,5.1599998474121
0.021551536881882,0.02157994375223,0.021541526124397,-9.8087856359571,-0.0048548441388759,0.0012348113515008, , , ,5.1700000762939
0.02224973263086,0.02225077009818,0.02223639103912,-9.8088040215554,-0.0048673014238684,0.0012202260718454,2.3860064871186e-05,-0.00049660970621686,1.0000552844283,5.1799998283386
0.021180753430284,0.021199027380392,0.021174865359349,-9.8088823437786,-0.0049519608018198,0.0011290283310612, , , ,5.1900000572205
0.021210726399919,0.021219307951393,0.021187777032355,-9.8089329378408,-0.0050313480201216,0.0010724772439628,7.0469650248082e-05,-0.00043069708609756,0.99996923876837,5.1999998092651
0.021485803028623,0.021525289674026,0.02146152693625,-9.8090921059059,-0.0051457209556722,0.0009052624432517, , , ,5.210000038147
0.022059345209673,0.022084189264678,0.022057628006049,-9.8089629422228,-0.0050287096025106,0.0010613948964728,2.8611726107907e-05,-0.00054312154292075,1.000034192947,5.2199997901917
0.022762299493504,0.022803865003576,0.022777110103785,-9.8089244510506,-0.0050214100929387,0.001091941139608, , , ,5.2300000190735
0.022610917117651,0.022631989165673,0.022600749576958,-9.8089495268703,-0.0050172171976209,0.0010670215914223,-4.6832246637594e-05,-0.00047468750300237,0.99999763807024,5.2399997711182
0.021755608691986,0.021767565399806,0.02175897353147,-9.8089409006406,-0.0050119216637473,0.0010838634340314, , , ,5.25
0.022766623759206,0.022775517299719,0.022765784958556,-9.8089359406134,-0.0050124876083693,0.0010552139377899,4.7827435805415e-05,-0.00043982166587476,1.0000887881483,5.2600002288818
0.022783465634301,0.022781883560538,0.02275447942778,-9.8091113808192,-0.0051873510949486,0.0009061127756932, , , ,5.2699999809265
0.022867047363829,0.022872926479153,0.022878834588608,-9.8092170597917,-0.0053126864797006,0.00076298486811141,-0.00010448718176569,-0.00040659598107929,0.99996954003125,5.2800002098083
0.022684554585034,0.022689069078427,0.022667615693412,-9.809254138767,-0.0053196916915301,0.00076294122345468, , , ,5.289999961853
0.023137471836199,0.023163764815004,0.023177457255935,-9.8092108526,-0.0052862740375531,0.00079449117707157,-1.8696078688123e-05,-0.00055499149780079,0.99996517086975,5.3000001907349
0.022897409856005,0.022919482141826,0.022922239016753,-9.8092741528827,-0.0053637770143699,0.00071167893053574, , , ,5.3099999427795
0.022323176244177,0.022352982906968,0.022326428572358,-9.8092347436171,-0.0053215037547113,0.00077361117964549,-3.6891484702884e-05,-0.00054067102438028,1.0000400144783,5.3200001716614
0.022325417286157,0.022335569081696,0.022335219890165,-9.8090993542831,-0.0051888527790687,0.00090073319959165, , , ,5.3299999237061
0.022481150185427,0.022524805279403,0.022508952201344,-9.8089907749417,-0.0050863874174491,0.0010053616775542,-8.0432439556935e-06,-0.00044480358425476,0.99995718277762,5.3400001525879
0.021260994689519,0.021289513525865,0.021267677854439,-9.8089437961631,-0.0050564159893967,0.0010467933301554, , , ,5.3499999046326
0.022845323960747,0.02286260628689,0.022858137722782,-9.8089622067925,-0.0050299473148158,0.0010630967768195,-0.00014708414679025,-0.00047866999030718,0.99999777213866,5.3600001335144
0.023276834260734,0.023299966057282,0.023283083156037,-9.8088715195491,-0.0049395290084033,0.0011388660385393, , , ,5.3699998855591
0.023615015913422,0.023646632931375,0.02363446786187,-9.8089526565549,-0.0050007906417124,0.0010567567667711,1.4624062110071e-05,-0.00038278459212498,1.0000269191287,5.3800001144409
0.024008522922226,0.024061493489414,0.024019309656474,-9.8089158214104,-0.0049770597129736,0.0011001945851004, , , ,5.3899998664856
0.024927343596245,0.02492936317029,0.02491476228855,-9.8088731716263,-0.0049635800379554,0.0011253897501366,-4.4770630465192e-05,-0.00048703274337672,0.99995163730975,5.4000000953674
0.025241073383005,0.025283754844032,0.025260497732054,-9.8089733054994,-0.0050622950273092,0.0010171439388843, , , ,5.4099998474121
0.025598292707394,0.025616952616845,0.025611507423909,-9.809196876659,-0.0052955310033763,0.00078291531689436,3.9525832359723e-05,-0.00051523168284013,1.0000956629573,5.4200000762939
0.026079835287945,0.026117863099626,0.026099643205893,-9.8092912626728,-0.0053768323125726,0.00070528548100655, , , ,5.4299998283386
0.026520548781853,0.026538877413246,0.026511464694516,-9.8092434944944,-0.0053229405740731,0.00076543082071614,-7.4069947681846e-06,-0.00044988924984789,0.99997660645522,5.4400000572205
0.026867567428285,0.026923558571795,0.026846652922126,-9.8093525554713,-0.0054303067263687,0.00064229107605479, , , ,5.4499998092651
0.026012336578296,0.026017915622437,0.026002278786311,-9.8092161779578,-0.005285886614321,0.00077771401205614,4.4190951214713e-06,-0.00051290236252193,1.0000237367837,5.460000038147
0.025903095632318,0.025907306436892,0.025908548173149,-9.8092585421019,-0.0053370380035077,0.00075135889582528, , , ,5.4699997901917
0.026424524243357,0.026474549351218,0.026440383294928,-9.8092409578206,-0.0053125472615306,0.00078131780883406,7.7995414402048e-05,-0.00047114401477051,0.99997608556471,5.4800000190735
0.027069818317217,0.027085462993224,0.027072647230623,-9.8091803942434,-0.0052701734802104,0.00081425286211027, , , ,5.4899997711182
0.025927171588451,0.025944588300116,0.025924056153939,-9.8093636849442,-0.0054326579242456,0.0006366239712022,0.00010991862703,-0.00054348885319887,0.99996009148068,5.5
0.026332257357115,0.026368463960918,0.026350345958019,-9.8093058522477,-0.0053848990296042,0.00070384067318799, , , ,5.5100002288818
0.025821433597013,0.025864178582803,0.025824575050445,-9.8092190845563,-0.0053005678404582,0.00080480486669197,0.00010653398607874,-0.00058408628901313,0.99999822012982,5.5199999809265
0.02645234907759,0.026465002189201,0.026455049042224,-9.8093589255356,-0.0054318396406836,0.00067486862169874, , , ,5.5300002098083
0.026137203349999,0.026157587768179,0.026138796185972,-9.8092367261019,-0.0052958639574763,0.00077615124086635,-5.7191594214783e-05,-0.0005184028148686,1.0000671542922,5.539999961853
0.025156017961452,0.02514863186545,0.02513767559318,-9.809018126798,-0.0051001816191861,0.00099406677343453, , , ,5.5500001907349
0.025415475760873,0.025411651060428,0.025383711477929,-9.8090178956549,-0.0050733676699954,0.00098000587918217,4.2235234647783e-05,-0.00039106356439578,1.0001579947824,5.5599999427795
0.025369086870789,0.025381428013065,0.025369091876001,-9.8090251493083,-0.0051027234190382,0.00097276769341784, , , ,5.5700001716614
0.025820963239062,0.025823912539181,0.025817889959096,-9.8089235125789,-0.0049980874151701,0.0011060933560429,-1.2589835040988e-05,-0.000463256573807,0.99995357788623,5.5799999237061
0.026096475211546,0.026083435094382,0.026047705844239,-9.8088149600911,-0.0048652004132927,0.0012043617567316, , , ,5.5900001525879
0.025125952856217,0.025159565924561,0.025126779974156,-9.8087471442585,-0.0048010725773446,0.0012714305259593,-2.446947691864e-06,-0.00050322907584516,1.0000239238227,5.5999999046326
0.024383567099896,0.024403820667599,0.024391296093108,-9.808900595925,-0.0049461991816955,0.0011359297530122, , , ,5.6100001335144
0.023569568490624,0.023625473145584,0.023608191813692,-9.8088024283382,-0.0048814800672271,0.0011883001993737,3.3899917525336e-05,-0.00046668764515016,0.9999397220879,5.6199998855591
0.024130689820546,0.024162132040404,0.024129168910371,-9.808820824251,-0.004934795702972,0.0011584838997795, , , ,5.6300001144409
0.023677011719727,0.023716513760535,0.023690058133271,-9.8089409951076,-0.0050020587012468,0.0010797652825472,3.0389615928546e-05,-0.00049047322561213,0.99993667665683,5.6399998664856
0.024153497831494,0.024199395559289,0.024159112714544,-9.8089208201575,-0.0049915808407089,0.0010889769110523, , , ,5.6500000953674
0.024065803222249,0.024077294136931,0.024058735848468,-9.8089799997502,-0.0050602125677854,0.0010242846485532,-7.2825542424193e-05,-0.0004967738358268,1.0000378266936,5.6599998474121
0.023942663043491,0.02395237939469,0.023929931769354,-9.809043064661,-0.0051106362860031,0.00094877917614229, , , ,5.6700000762939
0.025095882616863,0.02509963789049,0.025076244301905,-9.8090333228435,-0.0051323637861106,0.00096717887344575,-2.9910774410112e-05,-0.00053951671867193,1.000023226147,5.6799998283386
0.024846035356475,0.02485835472679,0.024809109411296,-9.8091238384488,-0.0052166505894423,0.00087330677470276, , , ,5.6900000572205
0.025367664579938,0.025403007019931,0.025373503292212,-9.8091738468174,-0.0052493672845898,0.00081236686573204,1.7744637444774e-05,-0.00046571198723356,0.9999967064856,5.6999998092651
0.025145372763942,0.025179470512331,0.025137492189094,-9.8091544439729,-0.0052633831691068,0.00082985703414727, , , ,5.710000038147
0.025390105541489,0.025416106071212,0.025394876235772,-9.8090987009638,-0.0051460612350688,0.00094019546150691,-3.3178491846435e-05,-0.00049913028269649,1.0000119631771,5.7199997901917
0.026298190631456,0.026295973484319,0.026303191164878,-9.8090836487354,-0.0051736073218964,0.00091423688220299, , , ,5.7300000190735
0.025736157810041,0.02573868470164,0.025762051743254,-9.8091277154978,-0.0052020946459256,0.00087068113344355,-6.5496409369195e-05,-0.00047972318893695,0.99994995825101,5.7399997711182
0.024270177457071,0.024316998734741,0.024259610582228,-9.8091009430031,-0.005171064119184,0.00091683052717723, , , ,5.75
0.023407650657352,0.023421373565997,0.023403154733053,-9.8089615799172,-0.0050383900767618,0.0010353620749654,-1.0322188758829e-05,-0.00052050364278626,1.0000216220605,5.7600002288818
0.023858043734887,0.023868911999728,0.023845026051665,-9.8089003679168,-0.004984136804644,0.0011137623379308, , , ,5.7699999809265
0.023706930377597,0.023710026244926,0.023695159887021,-9.8090747613632,-0.0051798074326873,0.0009173058418919,-8.4438055910335e-05,-0.00048647362397346,0.99998146988807,5.7800002098083
0.024364243227914,0.024396226889967,0.024352302367961,-9.8092287088023,-0.0053134650294075,0.0007729550309715, , , ,5.789999961853
0.025260745512664,0.02530467249683,0.025248695990516,-9.8092957959774,-0.0053584587351345,0.00071056383927648,-4.3603562451374e-05,-0.00048655369124727,0.99994512524041,5.8000001907349
0.025232548719974,0.025245049307028,0.025217287634036,-9.8092750138037,-0.0053525916067379,0.00075518009286278, , , ,5.8099999427795
0.025383210587103,0.025397047090039,0.025365305307862,-9.8093545213649,-0.0054428036578683,0.00065361130914871,0.00011814238735448,-0.00046807364096673,1.0000005765481,5.8200001716614
0.024672000672565,0.024727384662575,0.024711619498121,-9.8094154351676,-0.0055007898779134,0.00059659753844145, , , ,5.8299999237061
0.024543686030741,0.024569928127467,0.024509573544597,-9.8095192043145,-0.0056425227750626,0.00046448575012083,-4.7489807937012e-05,-0.0005072830132496,0.99998128542388,5.8400001525879
0.023070853374015,0.023095231726374,0.023080730793971,-9.8095953753136,-0.0056572691285338,0.00041126554497631, , , ,5.8499999046326
0.022916668667724,0.022982773334074,0.022966699425416,-9.8096611876884,-0.0057516610561915,0.00034121769894721,3.6676634138793e-07,-0.00052529425249175,0.99991698207489,5.8600001335144
0.023785967293276,0.023792207211451,0.023764399304429,-9.8095955458324,-0.0056987596995007,0.00039917066831244, , , ,5.8699998855591
0.023725402306743,0.023733491811095,0.023732656150265,-9.8096663951808,-0.0057597212424595,0.00034487609920542,6.3293870990612e-05,-0.00047525061593391,0.99995377009874,5.8800001144409
0.024464285750207,0.024484779593829,0.024465925716594,-9.8093718848269,-0.0054616838833095,0.0006330459123813, , , ,5.8899998664856
0.02473350834803,0.024804862121114,0.024742109162343,-9.8092196747393,-0.0053024028383767,0.00077636827723282,3.1740353057451e-05,-0.0004779312210927,0.99998602722753,5.9000000953674
0.024757600786905,0.024783986426106,0.024776219223547,-9.8091862565166,-0.0052663374129889,0.00082404426028213, , , ,5.9099998474121
0.025003236182237,0.024992998031906,0.024979815532777,-9.8091551203669,-0.0052309014707964,0.00088638160630397,-6.116381750704e-05,-0.00052016364865364,0.99993067525917,5.9200000762939
0.024433129799013,0.024480769940963,0.024430826551424,-9.8089976283146,-0.0050851685407478,0.0010184263979893, , , ,5.9299998283386
0.023487964335514,0.023537171686071,0.023477605241304,-9.8089021762028,-0.0049849434029117,0.0010670694985673,9.4708046898043e-06,-0.00043749855520848,0.99995595842293,5.9400000572205
0.022829479388778,0.022819381413545,0.022797977293298,-9.8089764062617,-0.0050262400040807,0.0010423871559956, , , ,5.9499998092651
0.022762117168528,0.02278677852581,0.022741060648766,-9.8088685350387,-0.0049565373748453,0.0011175475728925,-1.1101322912419e-05,-0.00042282058738481,0.99999840682248,5.960000038147
0.022436393715538,0.0224785687492,0.02244359176382,-9.8089807122631,-0.0050797327424715,0.0010109442676869, , , ,5.9699997901917
0.022352529416978,0.022367386210684,0.022336455480488,-9.8088423724148,-0.004911348672143,0.0011626384069654,2.0402315581763e-05,-0.00048775574741845,1.0000114012586,5.9800000190735
0.022458415210232,0.022464712433762,0.022430049653091,-9.8086512446807,-0.0047256936505511,0.0013609184445575, , , ,5.9899997711182
0.022265857468308,0.022319439810897,0.022268540596004,-9.8084569223639,-0.0045364660406642,0.001560060068767,3.0156685916864e-05,-0.00049432702006542,0.99995647281108,6
0.022177451910626,0.022183245728349,0.022191084929506,-9.8084734016553,-0.0045416870427969,0.0015552252247789, , , ,6.0100002288818
0.022203709979049,0.022243692839411,0.022216362094853,-9.8085033707133,-0.0045842850963602,0.0015124408996019,-2.8295769142841e-05,-0.00041331403709063,1.0000641232406,6.0199999809265
0.023136591333165,0.023159205784409,0.023129891009316,-9.8084775043431,-0.004553629410841,0.0015318434463054, , , ,6.0300002098083
0.02316426620747,0.023167192287161,0.023176549594945,-9.808507587988,-0.0045930009834776,0.0015134109972056,-7.8194814227239e-07,-0.00048701813680071,1.0001344722988,6.039999961853
0.022322015856382,0.022334722093585,0.022318786021378,-9.8085222761693,-0.0045917103235202,0.0015058318987014, , , ,6.0500001907349
0.022457643305456,0.022493452200268,0.022476900409754,-9.8084756427416,-0.0045573732041182,0.0015190817278175,-3.8793266814372e-05,-0.00048744134093211,0.99992588787703,6.0599999427795
0.021735169459499,0.021749072027537,0.021744542236073,-9.8085226803429,-0.0045965542096891,0.0014918921617661, , , ,6.0700001716614
0.020491952534771,0.020507189154718,0.020505366632226,-9.8083952327846,-0.0044874594848193,0.0015858979480815,-2.2822802825159e-05,-0.00042891533609967,1.0000091326788,6.0799999237061
0.021156740504966,0.021204287778186,0.02118409470145,-9.8086469328734,-0.004727387562907,0.0013450623947614, , , ,6.0900001525879
0.021255164054592,0.021284520482626,0.021243406808478,-9.8086310847119,-0.0047204552765866,0.001370361796541,1.6103225091063e-05,-0.00048808246206887,1.0000048112358,6.0999999046326
0.022584503116176,0.022612440503233,0.022579784944852,-9.8087414655073,-0.004842703452293,0.0012363778827704, , , ,6.1100001335144
0.023819540771045,0.023826310172418,0.02382555099421,-9.8085896892203,-0.004682367626738,0.001400108937586,4.0593453124963e-05,-0.00043551777266319,1.0000483369565,6.1199998855591
0.024342326368184,0.024345464397748,0.024339933591342,-9.8085349791402,-0.0046074625262171,0.001479407248934, , , ,6.1300001144409
0.024922277143905,0.024932773055786,0.024930647889544,-9.8086268319831,-0.0046932510907607,0.0013900598113893,8.7810389601145e-05,-0.00051059927171474,0.99993439820115,6.1399998664856
0.023718089499791,0.023747383611,0.023733603149875,-9.8085708247619,-0.0046169010419632,0.0014358496345891, , , ,6.1500000953674
0.023186217269782,0.023183283903478,0.023154972222326,-9.8085564539507,-0.0046380747032145,0.0014445404931484,5.2208640806688e-05,-0.00044652030467791,0.99998241038575,6.1599998474121
0.022590151621174,0.02259244973503,0.022567460019894,-9.8085628255626,-0.0046395823934397,0.0014153680841599, , , ,6.1700000762939
0.024697097862341,0.024747284362553,0.02470892147385,-9.8084143855655,-0.0044683043328214,0.0016043580347146,-6.019792001729e-05,-0.00048281623701733,1.0000396798257,6.1799998283386
0.023787929489266,0.023817389456426,0.023789796675299,-9.8084937044414,-0.0045637580931141,0.0015175999856477, , , ,6.1900000572205
0.024300767976777,0.024318494616917,0.024298624953567,-9.8086141427823,-0.004694365062208,0.0013910261535012,1.8512731925387e-05,-0.00052513409490319,1.0000170210925,6.1999998092651
0.024804250252188,0.024844905156498,0.024786755470982,-9.8085901927412,-0.0046841578319021,0.0014121023283948, , , ,6.210000038147
0.024138326729492,0.024190923432048,0.024163493474801,-9.8084924327715,-0.0045529666027933,0.0015138093877981,-1.145013914955e-05,-0.00041671500947716,0.99999821240153,6.2199997901917
0.023505896182501,0.023526580879837,0.023510749066764,-9.8083208052378,-0.004415013250576,0.0016794340571655, , , ,6.2300000190735
0.022734278153194,0.022735783682963,0.022715638905347,-9.8083483837984,-0.0044415041166189,0.0016581157413142,-2.0201883271474e-05,-0.0004794986828671,1.0001067658126,6.2399997711182
0.022313344917748,0.022351221885877,0.022305136708013,-9.8082971413551,-0.0043689494606677,0.0016808072671507, , , ,6.25
0.021974603857772,0.021990725614698,0.022000221255315,-9.8081522983135,-0.0042353695889764,0.00185833067184,-2.4293526102293e-06,-0.00051148873556806,0.99997436337373,6.2600002288818
0.021790071453863,0.021804831940906,0.02176726640767,-9.8081105313691,-0.0041825759979869,0.001932006099448, , , ,6.2699999809265
0.021537500812682,0.021584876331351,0.021560044532643,-9.8081567179016,-0.0042446507986826,0.0018209517152951,-5.6175376195416e-05,-0.00041608905453856,0.9999761888792,6.2800002098083
0.022187704835602,0.022187944224026,0.022180403185881,-9.8082300478985,-0.0043032035373084,0.0017850144767601, , , ,6.289999961853
0.022571438881144,0.0226280519569,0.022551685981316,-9.808301487191,-0.0043816482957114,0.0017243732491261,3.0997991954682e-05,-0.00059365545510171,1.0000668866872,6.3000001907349
0.022288136816256,0.022321791860367,0.02224538628501,-9.8083317964266,-0.0044105013871547,0.0016848922466792, , , ,6.3099999427795
0.022362230421728,0.022389295403097,0.02235022999712,-9.8081955064844,-0.0042955504756426,0.0017902989403213,-7.7825842605644e-05,-0.0006012489401404,0.99995460495673,6.3200001716614
0.022848324597651,0.022872559631682,0.022811929966888,-9.8082609089749,-0.0043464712855858,0.0017334863106707, , , ,6.3299999237061
0.022360297963773,0.022348526686957,0.022361731415615,-9.8083611980179,-0.0044478548642315,0.0016212250530209,-6.3861518471456e-06,-0.00050674822923175,1.0000151106355,6.3400001525879
0.021799030501758,0.021838044221664,0.02183177897013,-9.8084420517621,-0.0045088846200018,0.0015649221269513, , , ,6.3499999046326
0.021980206491291,0.022001273203675,0.021960552231063,-9.808503882996,-0.0045749187126657,0.0015095505751494,4.6166243488395e-05,-0.00044183617237994,0.99994559694681,6.3600001335144
0.022205513463315,0.022222502907001,0.022181925117059,-9.8086734594973,-0.0047317360907482,0.0013354170015706, , , ,6.3699998855591
0.024423244502163,0.024448124655505,0.024430563387067,-9.8087144132333,-0.0047853762634338,0.0012866076026703,-7.7862877456113e-05,-0.00042577930990918,0.99997480895573,6.3800001144409
0.02401723175001,0.024046471287467,0.024009688388059,-9.8085430326817,-0.004623434678384,0.0014309731795695, , , ,6.3899998664856
0.023730190313542,0.023802717229887,0.023735944603965,-9.8085955193413,-0.0046820006943266,0.0014052934671357,7.1907191784783e-05,-0.00051772621392367,0.99998692067082,6.4000000953674
0.024446222476999,0.024450560604559,0.024418081354631,-9.8086025906945,-0.0046738564453922,0.0014184881637256, , , ,6.4099998474121
0.024913863485519,0.024960109784697,0.024928639206805,-9.8085260849989,-0.004592766045022,0.0014778976609037,7.8947317169024e-05,-0.00053178609543106,1.000019025933,6.4200000762939
0.025750259566192,0.025805592986176,0.025753114657786,-9.8084827695517,-0.0045685267307118,0.0015222168395151, , , ,6.4299998283386
0.02596597375701,0.025984347794247,0.025992185108989,-9.8085632009566,-0.0046337520300728,0.0014409808782287,-1.422167038742e-05,-0.00046698296622314,1.0000210855728,6.4400000572205
0.02546452573896,0.025460764035518,0.025438567554871,-9.8087113268088,-0.0047895053106942,0.0012986494557193, , , ,6.4499998092651
0.024066322371276,0.024098580814931,0.024069759222828,-9.8087150125758,-0.0047784927024553,0.0013189699829176,-1.9503813249522e-08,-0.00046314095177972,0.99994232150622,6.460000038147
0.023948551818919,0.02396862493456,0.023934010312048,-9.8087198666002,-0.004785405355651,0.0012963007426311, , , ,6.4699997901917
0.024686026709354,0.024682806611583,0.024655360082752,-9.8085128385508,-0.0045866296545604,0.0014809595779223,8.4648751344901e-05,-0.00055714008078503,1.0000554233977,6.4800000190735
0.023037271315145,0.023039509200781,0.023050363597584,-9.8084427095091,-0.0045284154985716,0.0015497851801758, , , ,6.4899997711182
0.023756239981441,0.023761891242028,0.023748878424206,-9.8084636305958,-0.0045503564236531,0.0015417175950866,-9.371670489625e-06,-0.00053596567537736,1.0000344843812,6.5
0.023857146667804,0.023856357915911,0.023863624610096,-9.8087056266972,-0.0047870817506695,0.0013065074978031, , , ,6.5100002288818
0.024639369866347,0.024631370701676,0.02457423891246,-9.8087229020762,-0.0048069955781233,0.0012907803884795,3.674941052355e-05,-0.00045390990632688,0.9999634410215,6.5199999809265
0.023154018746147,0.023170953520435,0.023133328133754,-9.808586045806,-0.0046525637834343,0.0014142049534924, , , ,6.5300002098083
0.022764717991706,0.022766561736168,0.022739704995314,-9.8085855389445,-0.0046795854645169,0.0014147453266385,-1.6791648213132e-05,-0.00042808162604652,0.99997153537039,6.539999961853
0.023333459212805,0.023355891781734,0.023326460087299,-9.8085529112207,-0.0046158906857091,0.0014741780752974, , , ,6.5500001907349
0.024356164128814,0.024379101123244,0.02437598497684,-9.808477466688,-0.0045604468363297,0.0015270981011213,2.2774530375911e-05,-0.00046681198566935,1.0000417070266,6.5599999427795
0.023128337007021,0.023129386287729,0.023123579188395,-9.8083885090285,-0.0044585010176812,0.0016098499046599, , , ,6.5700001716614
0.023927470957376,0.023983207468653,0.023969040414096,-9.8085151409488,-0.0045835939499503,0.0014936628177532,-5.319588217336e-05,-0.00045996011224547,1.0000138560399,6.5799999237061
0.023321899401382,0.023375241864239,0.023328028610115,-9.8085916199773,-0.0046707263055436,0.001401952717462, , , ,6.5900001525879
0.024565466443841,0.024589079580521,0.02454660455256,-9.8087922164008,-0.0048633506464561,0.0012132940727062,8.1786503239575e-05,-0.00044485781338812,0.99997762167189,6.5999999046326
0.024619092009207,0.024632311038725,0.024612441462596,-9.8087735796252,-0.0048582580869172,0.0012106768626339, , , ,6.6100001335144
0.025581745496988,0.02561774726863,0.025577387368021,-9.8085524246219,-0.0046316318055883,0.0014584630366048,1.1462551961145e-05,-0.00050862212809877,1.0000554229553,6.6199998855591
0.025302320829516,0.025341823634213,0.025309491157132,-9.808540715518,-0.0046213948129992,0.0014688119840721, , , ,6.6300001144409
0.026284276819128,0.026287989823664,0.026302939535412,-9.8086091264919,-0.0046905475040633,0.0013996309309985,2.9919560241688e-05,-0.00051415877473268,0.99988404430458,6.6399998664856
0.024643694662501,0.024678292480363,0.024639548160517,-9.8084376172034,-0.0045178179259061,0.0015758693227672, , , ,6.6500000953674
0.025258404988393,0.025316738985023,0.025273168827521,-9.8083866945893,-0.0044568282616048,0.0016539186255829,-4.0317939502781e-05,-0.00049875792911323,1.0000136379401,6.6599998474121
0.024673144633053,0.024700947716687,0.024646522231741,-9.8082787295504,-0.0043639997225896,0.0017386872230122, , , ,6.6700000762939
0.025156737843188,0.025174744692538,0.025159085904625,-9.8082223083954,-0.0043216768781401,0.0017838267772643,-2.8347032198965e-05,-0.00047260530203428,1.0000728083874,6.6799998283386
0.024134230400444,0.024158056119074,0.02414392069533,-9.8083432982191,-0.0044027364265565,0.0016705670443493, , , ,6.6900000572205
0.024932200200993,0.024956097587328,0.024923541336181,-9.8084122489606,-0.0044890870202843,0.0015910412572071,5.188220421881e-05,-0.00056651033461202,1.0000681825053,6.6999998092651
0.024471499062915,0.024502293463686,0.024489839019154,-9.8084876928737,-0.0045622894652288,0.001520864060326, , , ,6.710000038147
0.024030963403483,0.024051644421511,0.024024302905982,-9.8084232799707,-0.0045066142570864,0.0015753694881886,-1.9386736819903e-05,-0.00053331799331032,1.0000201361513,6.7199997901917
0.023937246837341,0.023938348640488,0.023906203059352,-9.808544818318,-0.0046230976104935,0.0014658611002504, , , ,6.7300000190735
0.024931520099846,0.024985958752125,0.024965483878522,-9.8085290324426,-0.0046276295521692,0.0014717196456112,-2.1471541390337e-05,-0.00049555674893799,1.000007360308,6.7399997711182
0.025930161755059,0.025945002714425,0.025926533153022,-9.8085959964195,-0.0046900749065731,0.0014099321415232, , , ,6.75
0.027073519933301,0.027096578838506,0.027080680181623,-9.8086100016615,-0.0046926731800133,0.0014018777428322,-5.2537586039822e-05,-0.00051321034545975,0.9999788332778,6.7600002288818
0.026905388431244,0.026911414788405,0.026880037480404,-9.8085408261113,-0.0046203982084476,0.001458539360289, , , ,6.7699999809265
0.02709282816079,0.027113834245791,0.027087152232872,-9.8086311856335,-0.0047195495594439,0.0013761825856014,-1.1155952386963e-05,-0.00049561201349735,0.99996876292524,6.7800002098083
0.026429135086405,0.02645089250696,0.026473210230337,-9.8086552629406,-0.0047483050794203,0.001339206118189, , , ,6.789999961853
0.02702660132827,0.027062782263899,0.027025783754556,-9.8087370883154,-0.0048120000583329,0.0012789893990418,8.327271400266e-05,-0.0004450567336731,1.0000416908483,6.8000001907349
0.02765149326696,0.027671195693057,0.027646407940483,-9.8087721169075,-0.0048442558043326,0.0012600693681207, , , ,6.8099999427795
0.027811655800465,0.027833679434104,0.027795867603625,-9.8085935490201,-0.0047125855419251,0.0014041081418613,-5.7358314684047e-05,-0.00041442178024858,1.0000600926033,6.8200001716614
0.02691002977294,0.02695075034252,0.026920150173457,-9.8086612786187,-0.0047368157540432,0.0013495686477222, , , ,6.8299999237061
0.027358356341192,0.027397459932657,0.027369613618097,-9.8086508153653,-0.0047121337393009,0.0013649432888463,-7.176481597236e-05,-0.00050377189853343,1.0000367247966,6.8400001525879
0.027405769383531,0.027425916801606,0.027401126714718,-9.8084768509119,-0.0045566888309389,0.001518199374483, , , ,6.8499999046326
0.027721599224501,0.027755311672407,0.02775513120734,-9.8086296920814,-0.0047126272465625,0.0013762550148848,-5.0238165879362e-06,-0.00060373163572833,0.99990599871917,6.8600001335144
0.028060647493178,0.028044920637171,0.028035500763639,-9.8086125258396,-0.0047055097136041,0.0013814104903151, , , ,6.8699998855591
0.028279221866883,0.028345041595454,0.028317948751795,-9.8087235759662,-0.0047915242059931,0.0012851035562469,-1.6812184312465e-05,-0.00053409712237947,0.99990811760181,6.8800001144409
0.027498183051084,0.027519258145708,0.02748796614074,-9.8087184889598,-0.0047984666699278,0.0012851290988979, , , ,6.8899998664856
0.02860936990304,0.028633976830443,0.028589662403262,-9.8088349022807,-0.0049277197105797,0.0011755452114651,-1.8741130037181e-06,-0.0004866797569509,1.0000040963429,6.9000000953674
0.027481025683003,0.027510931981014,0.02748277769171,-9.8088563105133,-0.0049279787020292,0.0011465834200345, , , ,6.9099998474121
0.029170710709935,0.029199956375389,0.029157693584613,-9.8090566560775,-0.0051388394045635,0.00093107167788222,9.6701457701522e-06,-0.00048856905129233,0.99991814905819,6.9200000762939
0.028160428810401,0.028199290696185,0.028155374626387,-9.8091545684488,-0.0052211752073743,0.00085019882953816, , , ,6.9299998283386
0.028879935934801,0.028856321475296,0.028831128830857,-9.8092368947128,-0.0053279363054084,0.00076640515609186,1.2629040245345e-05,-0.0004577221551334,1.0000749618818,6.9400000572205
0.029849740449077,0.029883556687508,0.029861467985573,-9.8092335293431,-0.005310880095798,0.00076659130082811, , , ,6.9499998092651
0.030874468581776,0.030885053464168,0.030860323372387,-9.8092368720536,-0.0053044647798119,0.00077802603050294,5.202490935025e-05,-0.00053821664042803,1.0000056457755,6.960000038147
0.030163673573956,0.030169940231323,0.030145563365356,-9.8091884385717,-0.0052664632360959,0.00083156211129313, , , ,6.9699997901917
0.029794379878948,0.029791685513809,0.029778133345355,-9.8092364264723,-0.0053010622952055,0.00077439555603262,-1.3672117568621e-05,-0.00046470247716647,1.0000759062502,6.9800000190735
0.029151923846404,0.029188762603653,0.029126298778184,-9.8093139587976,-0.0054018981479426,0.00068704542695416, , , ,6.9899997711182
0.028809683710119,0.028835029116251,0.028827011894403,-9.8092743621849,-0.0053581817368256,0.00072320049904322,4.0201205931313e-05,-0.00043561504606542,1.000009046198,7
0.028051757568894,0.028104207989151,0.028085652776589,-9.8093068295985,-0.0053804187066633,0.00068638082356962, , , ,7.0100002288818
0.02860585945873,0.028621281314241,0.028633810628623,-9.8093693182323,-0.0054359964049167,0.00064348715939053,-5.3891026186602e-05,-0.00052794941191843,0.99991531877255,7.0199999809265
0.028363067069562,0.028402033250438,0.028395903265084,-9.8092631707375,-0.0053463145735229,0.00074498043877526, , , ,7.0300002098083
0.027346066053464,0.027379434745772,0.027363458536628,-9.8094683251906,-0.0055740622024331,0.0005184667193656,9.2398419958724e-05,-0.00045765117626675,1.000035730865,7.039999961853
0.026344351310063,0.026356246370856,0.026312154385376,-9.8096385573071,-0.0056909702960938,0.00037143712002905, , , ,7.0500001907349
0.025605343099978,0.025624509908061,0.025647157297146,-9.8095505413414,-0.0056434646605815,0.00045910981133635,-2.2171164498309e-05,-0.00049719249943826,1.0000533681103,7.0599999427795
0.025859883072803,0.025883569824384,0.025860210709096,-9.8094762178653,-0.0055395907090749,0.00053316462255782, , , ,7.0700001716614
0.024248320165781,0.024278531315572,0.024274531350917,-9.8095327327406,-0.0055901310211324,0.00048550392522141,2.1076021217517e-05,-0.00042900323331042,0.99988892825021,7.0799999237061
0.023668202239817,0.02366795754987,0.023640724057209,-9.8095560664232,-0.0056484349830106,0.00043403601261405, , , ,7.0900001525879
0.022631166147173,0.02267864364302,0.022637485549444,-9.8096844091416,-0.00577291607396,0.00032113632851148,1.9673910714105e-05,-0.00055158869891322,1.0000891168783,7.0999999046326
0.022657819443609,0.022681385368306,0.022633632010267,-9.8097283301904,-0.0057810898716717,0.00028101244623889, , , ,7.1100001335144
0.023328880694778,0.023342787756115,0.023294213664756,-9.8096968568853,-0.0057386380101063,0.00031076424587668,-5.7806264275698e-05,-0.00047183345083195,1.0000307654992,7.1199998855591
0.024113734857596,0.024163668087108,0.02411334970631,-9.8098116958442,-0.0058960226896856,0.00017375325770049, , , ,7.1300001144409
0.023933060333475,0.023952767664022,0.023964171203433,-9.8098919583584,-0.0059869745559439,0.00011793613628456,-7.3616724085335e-05,-0.00040504957865023,1.00001689926,7.1399998664856
0.02443477938918,0.024463311763081,0.024413680522051,-9.8098947002316,-0.0059640316400121,0.00012147447873324, , , ,7.1500000953674
0.02489629886318,0.02494913561707,0.024902653113812,-9.8098535126557,-0.0059634043094496,0.00013723280317298,3.1182882165147e-05,-0.00044130107710919,1.0000578698594,7.1599998474121
0.02405361426249,0.024097471393373,0.024099406997976,-9.8098299447915,-0.0059110351897559,0.00017819010057666, , , ,7.1700000762939
0.022571202234416,0.022589620816471,0.022544696502462,-9.8098438353864,-0.0059054956480022,0.0001916546069967,-7.0417448281086e-05,-0.00051246102995609,0.99989969389517,7.1799998283386
0.021587961179703,0.021620880787503,0.021600752237867,-9.8099682842119,-0.0060351003832274,3.3978157602105e-05, , , ,7.1900000572205
0.020941685420865,0.020965625081009,0.020942878461401,-9.8099009617024,-0.0059844542903128,8.1540161386988e-05,3.5439736204312e-05,-0.00048489873395965,1.0000068626115,7.1999998092651
0.021705989465614,0.021719502015079,0.021702370058737,-9.8096371335241,-0.00570217341373,0.00037799277071999, , , ,7.210000038147
0.020600657367804,0.020613911660142,0.020566837852052,-9.8095905869034,-0.0056861082005544,0.00041537706496821,7.6581950773413e-05,-0.00055724430914971,0.999979977529,7.2199997901917
0.020397008367028,0.020432606406559,0.020417887745327,-9.8096357660432,-0.0057280497008616,0.00035886278988166, , , ,7.2300000190735
0.019382248959689,0.019416514543679,0.019406127001524,-9.809700786188,-0.0057871857296122,0.00031361912761265,4.9719358774787e-05,-0.00052646180690985,1.0000408817756,7.2399997711182
0.019726218435022,0.019744391426051,0.019724099173365,-9.8096435771565,-0.0057168643971721,0.00036315690676142, , , ,7.25
0.02065438623848,0.020675608954702,0.020689195813202,-9.8096629042835,-0.0057535529637814,0.00033810557759365,1.6022785256549e-05,-0.00041993779249856,0.99988291228966,7.2600002288818
0.020753474255513,0.020774106855149,0.020738566501397,-9.8096072852949,-0.0056822434064456,0.00040196331024835, , , ,7.2699999809265
0.02147989608595,0.021527653045902,0.021511248677188,-9.8094840655295,-0.0055490456129113,0.00052778358636254,-5.8389051575073e-05,-0.00040847648751728,0.99993398674545,7.2800002098083
0.020497372866971,0.020508470625919,0.02048063317416,-9.8094459617271,-0.005528726624147,0.00054121670688797, , , ,7.289999961853
0.01957519680096,0.019618407167406,0.019597970011256,-9.8094295180933,-0.0055040785762398,0.00059356499399494,1.3146324127185e-05,-0.00057590614552156,0.9999007252993,7.3000001907349
0.018516648192301,0.018540802868137,0.018509821636981,-9.8095438524888,-0.0056299978177198,0.00046638465412275, , , ,7.3099999427795
0.019126080570469,0.019164722417923,0.019147264213632,-9.8095484517585,-0.0056240304784043,0.00044253275291158,-8.8243376087527e-06,-0.00054120262253848,1.0000077601646,7.3200001716614
0.018624584465931,0.018623696880968,0.018581658803212,-9.8095894466667,-0.0056820825705858,0.00040737175865541, , , ,7.3299999237061
0.019440174304258,0.019477357203224,0.019450459360213,-9.8095238627052,-0.0055884503633835,0.00050305999174464,-2.5422451340222e-05,-0.00054210596317108,0.99998878265646,7.3400001525879
0.020913925042333,0.020955220843633,0.020947764769616,-9.8095277352586,-0.0056199722547791,0.00045146114727043, , , ,7.3499999046326
0.020783547651144,0.020817463768936,0.020819603228539,-9.8095468031582,-0.005607643284551,0.00046142695254469,5.0612376543592e-05,-0.00051237866418108,0.99996282319937,7.3600001335144
0.020993197232677,0.021028924212604,0.021001826757661,-9.8097159576288,-0.0057709832971103,0.00031591965483978, , , ,7.3699998855591
0.020346510127683,0.020387899700279,0.020322471629423,-9.8095982466271,-0.00570458020568,0.00040577995808403,6.8533351092327e-06,-0.00050751562449988,1.0000062583725,7.3800001144409
0.019335278115194,0.01936489513495,0.019322793670703,-9.8096371262875,-0.0057347510460913,0.00036066470109313, , , ,7.3899998664856
0.019664249953549,0.019681356367935,0.019669253344465,-9.8096178626142,-0.0057047697504838,0.00036611480112442,4.7418181765521e-06,-0.00051801208422425,0.99997520973772,7.4000000953674
0.020463107868488,0.020454752366639,0.020439891834225,-9.8097098880675,-0.0057820271396725,0.00030381544267098, , , ,7.4099998474121
0.020994211384788,0.020989977788623,0.020968419558335,-9.8096143142648,-0.0057044384294005,0.00038094423628244,-5.9458501214089e-06,-0.00039365344381769,1.000046557049,7.4200000762939
0.021342160358653,0.021377308104773,0.021367611544937,-9.8096007629598,-0.0056664597945632,0.00040501186294813, , , ,7.4299998283386
0.02280296204469,0.022833251538327,0.022799767902529,-9.8097457396768,-0.0058293245556844,0.00026042057689858,3.6083430109771e-05,-0.00042999921028368,1.0000333466294,7.4400000572205
0.023886948791303,0.023926642019747,0.02390932889491,-9.8098351662016,-0.0059151867566972,0.00015487251516531, , , ,7.4499998092651
0.023546749872969,0.023559881602751,0.023561947103589,-9.8097741416442,-0.0058379665155476,0.00023593954594435,-3.4966735831496e-05,-0.00056743459276062,1.0000776500079,7.460000038147
0.0242441038742,0.024258002673393,0.024231618632024,-9.8095169588821,-0.0055832160426835,0.00050855206717154, , , ,7.4699997901917
0.023006586004347,0.023016063728026,0.023024816051762,-9.8095904705271,-0.0056649615854836,0.00041693948133995,4.5057754504222e-05,-0.0005814083085406,0.9999980458483,7.4800000190735
0.023583835364572,0.023614648894264,0.023574385699354,-9.8096466153661,-0.0057263829654387,0.00035251078823121, , , ,7.4899997711182
0.024399288512617,0.024388924799023,0.024395672132086,-9.80970595502,-0.0058017934754574,0.00029070757319952,3.0599791893064e-05,-0.00053052088044379,1.0000428593322,7.5
0.024501979210339,0.024516855862724,0.024497828580106,-9.8096855793015,-0.005750976985681,0.00031916855232722, , , ,7.5100002288818
0.024613827933351,0.024612527043031,0.024602880420878,-9.8096658917806,-0.0057400222272271,0.00034144529737681,2.3003109534181e-05,-0.00049469729337671,1.0000484283768,7.5199999809265
0.024251109676284,0.024265172696528,0.024232263640843,-9.8096411409992,-0.0057347534145539,0.00035795742539052, , , ,7.5300002098083
0.025433939504484,0.025424367613285,0.025424508811522,-9.8095949500705,-0.005668114475217,0.00042902042976516,1.2082364146891e-05,-0.00048143156796072,0.99986884716568,7.539999961853
0.025132994115355,0.025162284571797,0.025126987921835,-9.8095845835355,-0.0056636664957417,0.00042442532569359, , , ,7.5500001907349
0.026009465049848,0.026061078475217,0.026027985050839,-9.8094904857931,-0.0055474618637379,0.00051762721303705,-4.3651697928695e-05,-0.00051517116468749,1.0000740011591,7.5599999427795
0.024430049903769,0.024468280493272,0.024418069739599,-9.8095202055598,-0.0055782993743914,0.00050738401494665, , , ,7.5700001716614
0.024616436278474,0.024662586136271,0.024633666010995,-9.8094860314179,-0.0055755303808417,0.00053558823128729,-3.3819268672254e-05,-0.00050167216331109,1.0000142164092,7.5799999237061
0.02501964499583,0.025025915899917,0.025032899842088,-9.809359013498,-0.0054535635930601,0.00064453327019, , , ,7.5900001525879
0.024933812926311,0.024986280749656,0.024936356558032,-9.8094860225688,-0.0055895508963342,0.00053142967397435,-2.3941240238607e-05,-0.00054940808071843,1.0000805982905,7.5999999046326
0.024492538591356,0.02449602073052,0.024485005010952,-9.8094669972069,-0.0055468138934019,0.00053359897936644, , , ,7.6100001335144
0.024667796689908,0.024703756603748,0.024656292315167,-9.8094346142298,-0.0055195768733794,0.00058494500304995,2.3275332371308e-05,-0.00043367977389395,0.99995137478025,7.6199998855591
0.024547601741109,0.02459479651442,0.024564901454536,-9.8093165473473,-0.0053898207537077,0.00069090881926632, , , ,7.6300001144409
