gyroX,gyroY,gyroZ,accelX,accelY,accelZ,magnetX,magnetY,magnetZ,Time
9.0038290044795e-06,-7.8511653713453e-06,1.6270793093756e-06,-8.9895226905194e-06,1.4712597579596e-05,-9.8100153974043,1.0000372818873,5.7361509078373e-05,-5.1099821133102e-05,0
-7.7845652077677e-05,-0.0001045936895295,-7.6724867664402e-05,-6.9947999952334e-06,4.0843817394181e-06,-9.8099997446661, , , ,0.0099999997764826
-2.2466057961177e-05,-3.6782641331725e-05,-3.9173655064836e-05,-5.2878138553621e-05,-5.7683718507152e-05,-9.8100656474891,0.99999134232121,4.1169919259735e-05,-1.0847042183877e-05,0.019999999552965
0.00059474801438692,0.0005876006015493,0.00059574033729501,-0.00011767502613122,-0.00011176738936796,-9.8101073781437, , , ,0.029999999329448
0.0016739867256672,0.0017341519678584,0.0017158965977016,-0.00026804130510022,-0.00027226016916441,-9.810275195801,1.0000445337663,-7.9418419453762e-06,-1.1374586831593e-05,0.03999999910593
0.00049298462142237,0.00048435566137376,0.00051107376563343,-0.00040940893119527,-0.00037062459537358,-9.81039024424, , , ,0.050000000745058
0.00093771956330736,0.00091712704265481,0.00094455501744243,-0.00039981040115583,-0.0004061301244246,-9.810390554769,1.0000457970299,8.8000782545293e-06,-8.0420320367152e-05,0.059999998658895
2.7043568041127e-05,2.463906995331e-05,3.0858445064933e-05,-0.00041849334256558,-0.00043050789184635,-9.8104269366978, , , ,0.070000000298023
0.00054899611071541,0.00054932835114218,0.00055785029457849,-0.00060284742756708,-0.00058636248360346,-9.8106060095368,0.99995758779978,5.6701808425828e-06,0.00014753488590268,0.079999998211861
0.00018108865420225,0.00018912306402062,0.00019797643143298,-0.00055034105840091,-0.00051819468471079,-9.810539149206, , , ,0.090000003576279
-0.0004143259007803,-0.0004271139353575,-0.00042721241382815,-0.00044145448143223,-0.00043867940737822,-9.8104346278583,1.0000132910366,-3.9897968854224e-06,3.3727813070148e-05,0.10000000149012
-0.00011931343999753,-0.00013555646498261,-0.00014579244667776,-0.00060214518682612,-0.00060701074272223,-9.8105964120889, , , ,0.10999999940395
0.0013803508977516,0.0013889463126227,0.0013633789148259,-0.0005780336826424,-0.00058392250507972,-9.8105797684493,1.0000236701172,5.3529744955043e-05,-5.2875823270309e-05,0.11999999731779
0.002049017067032,0.0020861250193313,0.002045734225197,-0.00046614495420091,-0.00046176493864646,-9.8104686607876, , , ,0.12999999523163
0.0030009148862335,0.0030247822068415,0.0030150658136661,-0.00059490796071132,-0.00058927862823543,-9.8105916149013,1.0000922481051,-9.0754652951918e-05,-5.4241735851527e-05,0.14000000059605
0.0031528770307931,0.0031278126888115,0.0031365506626957,-0.0005839450604114,-0.00059150924168982,-9.810604430118, , , ,0.15000000596046
0.0028087251709109,0.0028303704848814,0.0028096980718734,-0.00057429990936777,-0.0005763844089768,-9.8105923463934,0.99993050764271,7.1214363888177e-06,6.183952205862e-05,0.15999999642372
0.0029684669008598,0.002944924792014,0.0029682631608405,-0.0005525953450581,-0.00055676330500666,-9.8105572478513, , , ,0.17000000178814
0.0033119245109591,0.0032921567314443,0.0033083728757804,-0.00055878845361037,-0.00057802104014369,-9.8105529104032,0.99998874009199,9.7275085161282e-05,-8.8001041886358e-05,0.18000000715256
0.0042398993629025,0.0042343771653667,0.004255175830665,-0.00051244768542989,-0.00051774667976042,-9.8105254794603, , , ,0.18999999761581
0.0053427490560969,0.0053494613863653,0.0053535316989049,-0.00049250998423408,-0.00050509780511164,-9.8104945945566,0.9999720317456,-2.2505225547162e-05,-3.537784001327e-05,0.20000000298023
0.0050635252272455,0.0050456396128569,0.005069926532962,-0.00051573152910026,-0.00053126670450872,-9.8105419884725, , , ,0.20999999344349
0.0045361864492,0.0045278690202334,0.0045158405991047,-0.00063690208466209,-0.0006284924847435,-9.8106271284241,0.99997257857662,5.5615884827468e-05,3.0745214700822e-05,0.21999999880791
0.0045417132142178,0.0045202664056647,0.0045223032316478,-0.0007233627466253,-0.00073877559923172,-9.8107435368994, , , ,0.23000000417233
0.0033739421483143,0.0033834768037676,0.0033696633541651,-0.00070663238289733,-0.00071271711084283,-9.8106982713624,1.0000552768375,-1.2332299166944e-06,-0.00010530511543281,0.23999999463558
0.0033469305296649,0.0033572538302308,0.0033861635894816,-0.00073126154267251,-0.00073924093234642,-9.8107240416062, , , ,0.25
0.0039068054100449,0.003872840913446,0.003900830714111,-0.00068060354172702,-0.00066662192260414,-9.8106976036232,0.99997887096132,2.9492004307052e-05,-1.3273368167053e-05,0.25999999046326
0.0043474459608986,0.0043359041681873,0.0043664677305473,-0.00083482346458279,-0.00083252776798473,-9.8108296023835, , , ,0.27000001072884
0.0043537811329684,0.0043406536675962,0.0043535440089515,-0.00088752407719953,-0.00089510434944731,-9.8109044856888,0.99997660003652,-3.1857798435092e-05,-5.7306543830302e-05,0.28000000119209
0.00554747990408,0.0055189675571654,0.0055057152219737,-0.00097732692111987,-0.00098007672224455,-9.8109594812123, , , ,0.28999999165535
0.0057372389200303,0.0057140711095819,0.0057422045015008,-0.0008219134069037,-0.00085332421618738,-9.8108419739513,1.0000176380727,-1.5076766169441e-05,-6.5752313044002e-05,0.30000001192093
0.0047923012717243,0.0047999230792978,0.0048048311629624,-0.00085570472475404,-0.00086246964595451,-9.8108797290588, , , ,0.31000000238419
0.0053233804557769,0.0053300949315346,0.0053205389262214,-0.00091455694018561,-0.00088796688543818,-9.8109092582734,1.0000125366184,6.4595716030029e-05,-8.3012449380587e-06,0.31999999284744
0.0064134782857313,0.0064200704827459,0.0063934839247665,-0.0010056182360123,-0.0010025279504938,-9.8110151369217, , , ,0.33000001311302
0.0063981536762887,0.0063942234096378,0.0064020359185803,-0.0010319678721211,-0.0010201202467248,-9.8110190496435,1.0000095307876,-9.0203068676391e-05,-5.6119637912194e-05,0.34000000357628
0.0054537490504529,0.0054187155021601,0.0054193949893268,-0.0012091675774474,-0.0012094837308167,-9.8111944373316, , , ,0.34999999403954
0.0061934838680009,0.0062222774333794,0.0061816520091278,-0.0010233083028167,-0.0010349137173042,-9.8109992172329,0.99999589174511,5.4604810849571e-05,-6.3854057379083e-07,0.36000001430511
0.0066138822640794,0.006603063272766,0.0066021370256028,-0.0009046709805694,-0.0009040665784247,-9.8109007279388, , , ,0.37000000476837
0.0069314967598168,0.006930694565813,0.0069338441213173,-0.0010044227386943,-0.0010080818881663,-9.8109963589846,1.000116866642,-0.000106006875568,-2.5176187372226e-05,0.37999999523163
0.0078881039118139,0.0078892171602004,0.007857911398751,-0.0010539476329963,-0.0010824726145168,-9.8110576661142, , , ,0.38999998569489
0.0084477759408533,0.0084503997053341,0.0084699146703892,-0.0010481101096645,-0.001037418810375,-9.8110424146482,1.0000720431641,2.3368905505979e-05,3.8663876542636e-05,0.40000000596046
0.0092219366364758,0.0092026647242782,0.0092052467224061,-0.0010815961484108,-0.0010780623656074,-9.8110601732014, , , ,0.40999999642372
0.0098360679357398,0.0097983648646541,0.0098511302528534,-0.0010199878174153,-0.0010278128602087,-9.8110249307285,1.0001035445229,1.9171375586497e-05,6.0878718782517e-05,0.41999998688698
0.0096169997747111,0.0095894377254171,0.0095844749829521,-0.00097393952328064,-0.00096343982306816,-9.8109633698141, , , ,0.43000000715256
0.0089849913621434,0.0089714325055542,0.0089581601899158,-0.0010279817278377,-0.0010357108162708,-9.8110423626444,1.0000151918885,-5.388194236524e-05,0.00010531133341557,0.43999999761581
0.0087099753238756,0.0086973155124307,0.0087248446053592,-0.00096340512233061,-0.00097171845758384,-9.8109633918435, , , ,0.44999998807907
0.0073150471742105,0.0073149512407941,0.0073223163702086,-0.00090353324565347,-0.00089131254257012,-9.8109154940922,1.0000393651372,-2.6012074834375e-05,-1.4973488998658e-05,0.46000000834465
0.0073939875828102,0.007410211655303,0.0073961583588294,-0.00092492256753115,-0.00092311564857783,-9.8109347536109, , , ,0.46999999880791
0.0077295896898856,0.0077278649532252,0.0077318149754829,-0.00090630444532244,-0.00089577757247638,-9.8109152491411,1.0000663059775,-3.0753050801419e-05,5.0277228007589e-05,0.47999998927116
0.0076386953406408,0.0076011733059328,0.0076426571900894,-0.00093694990453379,-0.00095943132156414,-9.8109514895168, , , ,0.49000000953674
0.0078730378747037,0.0078652040904689,0.0078682104544555,-0.00092862088176619,-0.00092863127565683,-9.8109197737615,1.0000042215088,5.0089527664318e-05,2.0470971730834e-05,0.5
0.0075587787765205,0.0075895931905068,0.0075943165534314,-0.00093483135489409,-0.00093458153251297,-9.8109156903957, , , ,0.50999999046326
0.0074104892947536,0.0074236590686158,0.0073791979771924,-0.00092477105322848,-0.00095121058489152,-9.8109141693617,0.9999462506351,1.9940226457435e-05,-2.7778358529043e-05,0.51999998092651
0.0081485768635826,0.0081289233780519,0.0081192506082258,-0.00095028360686432,-0.00095560530370413,-9.810959078741, , , ,0.52999997138977
0.0091957577048355,0.0091927885881662,0.0091692160304934,-0.00097423045039783,-0.00096792009913294,-9.8109821749826,1.0000284680217,5.673164429523e-05,4.6161677298129e-05,0.54000002145767
0.0095087149935471,0.0095201140911848,0.0095477015696538,-0.0009413325858828,-0.00092208331738272,-9.8109305159755, , , ,0.55000001192093
0.009739788740602,0.0097152842169389,0.0097311519800118,-0.00088310289960124,-0.00087437496679388,-9.8108996283818,0.99990073607952,-0.0001114227915942,-1.5059668485135e-05,0.56000000238419
0.010062133063661,0.010075112645008,0.010077100682309,-0.00082858542692028,-0.00083720514782709,-9.810833752622, , , ,0.56999999284744
0.01091822981241,0.010932333067438,0.010915721755626,-0.00097924500687848,-0.00097276926606987,-9.8109755708518,1.0000592113685,1.5011960627169e-05,-6.4896631390103e-07,0.5799999833107
0.010221275048085,0.01023866553557,0.010204875828639,-0.0010864202859201,-0.0010647909271116,-9.8110659601306, , , ,0.58999997377396
0.010452783610587,0.010431775347634,0.01045428101135,-0.00096218753093254,-0.00094367212143851,-9.8109623429668,0.99995577676896,3.77139316925e-05,-1.2586089610298e-05,0.60000002384186
0.0096644778468057,0.0096645888063174,0.0096454299293904,-0.0010568712081274,-0.0010486834568652,-9.8110551942447, , , ,0.61000001430511
0.0096296379559983,0.0095885314951708,0.0096004822353884,-0.00095805633612017,-0.00094038620037474,-9.8109288491254,0.9999957759818,2.1909387449029e-05,-9.0415807657839e-06,0.62000000476837
0.0097056814912128,0.0097120848002695,0.0097538079095499,-0.0010036073458341,-0.00099904613899715,-9.8110027679188, , , ,0.62999999523163
0.0088105420715136,0.0088305678792096,0.008812450228789,-0.00098853399714893,-0.00098048035941352,-9.8109855550922,1.0000952806145,-2.5415436450837e-06,-2.8394990374198e-05,0.63999998569489
0.0081399734978359,0.0082015586048708,0.008157352123977,-0.00093393207969076,-0.00094665442842414,-9.8109242067921, , , ,0.64999997615814
0.008084815501043,0.0080660393191673,0.0080744001769812,-0.00078729483869983,-0.0007775425969394,-9.8107967768344,0.9998894987791,-9.134214010491e-05,-2.7153268128005e-05,0.66000002622604
0.0091244081832445,0.0091074604721251,0.0091238234806137,-0.00093714095452297,-0.00097426124071278,-9.8109544966985, , , ,0.6700000166893
0.010414754230256,0.010381478795811,0.010405552607698,-0.00092094384890367,-0.00092051459027137,-9.8109250207079,0.99994172617123,-6.0568679249585e-05,-2.9455821069619e-05,0.68000000715256
0.010574403573175,0.010545781581336,0.010528080629947,-0.00077761763577037,-0.00079071961356418,-9.8107770871028, , , ,0.68999999761581
0.011300235693022,0.011320689441508,0.011337609183732,-0.00088637531477333,-0.00086879216147854,-9.8108781692154,0.99996368696784,9.5847588754416e-05,-7.7024160913476e-05,0.69999998807907
0.01016259363643,0.010220296898878,0.010185384113633,-0.00087718703160492,-0.00087401936122319,-9.8108599805178, , , ,0.70999997854233
0.0095822275919533,0.0095514953516785,0.0095534027171346,-0.00072118322351668,-0.00071926084006551,-9.8107112257768,0.99995484556878,-9.4150956868454e-05,5.948147902051e-05,0.72000002861023
0.0099445571591466,0.0099548090859436,0.009956824873995,-0.00061721126557091,-0.00062982794166788,-9.8106356969676, , , ,0.73000001907349
0.010534471657248,0.010520803104165,0.010520434786867,-0.00067567088060799,-0.00066762506365428,-9.8106629945407,1.0000355971541,4.7894310059787e-05,-5.521462826131e-05,0.74000000953674
0.011324713185194,0.011286302397652,0.01130108230468,-0.00059599599222546,-0.00059198357741561,-9.8106158256405, , , ,0.75
0.011827142774769,0.011863048263667,0.011852567946153,-0.00061159934938511,-0.0006240771318923,-9.8106031092398,1.0000617832818,0.0001185028319068,4.2272360546351e-05,0.75999999046326
0.010748627532761,0.010751170574131,0.010754094372929,-0.0006300350975174,-0.00063370306717487,-9.8106215935482, , , ,0.76999998092651
0.010181144642074,0.010209044655477,0.010155688642025,-0.00075239598274773,-0.00077743816899301,-9.8107697111646,0.99994017613556,6.3237567829079e-05,-5.8196643131396e-05,0.77999997138977
0.010262213753123,0.010240974366748,0.010236318115809,-0.00071706777804744,-0.00074230518455293,-9.8107187081602, , , ,0.79000002145767
0.0080470602430154,0.00806510526319,0.0080514657013513,-0.00074333154862208,-0.00072235414603236,-9.8107122534872,0.99997469296161,-5.3859450581396e-05,-5.0629091824263e-05,0.80000001192093
0.0058928147910493,0.0058927837562308,0.0058836989661244,-0.00048276421718105,-0.00047724285937124,-9.8104717146816, , , ,0.81000000238419
0.0056576293539222,0.0056699086782229,0.0056742333032005,-0.00041801862476829,-0.00040305170659635,-9.8104012032287,0.99998015786667,-6.9828312177407e-05,-3.589780075515e-05,0.81999999284744
0.0066221596348716,0.0066320247123001,0.0065982575923759,-0.00047780420381548,-0.00047938353749993,-9.8104600609169, , , ,0.8299999833107
0.0059248116020282,0.00591846969071,0.0059309617329461,-0.00036704341221182,-0.00037248553770437,-9.8103774436914,0.99996343052466,4.5097856431346e-06,3.5336072523691e-05,0.83999997377396
0.0062385922215449,0.0062428714144244,0.0062260318755658,-0.00027111767077494,-0.00028810076431605,-9.8102595954843, , , ,0.85000002384186
0.006391756740498,0.0063966506023744,0.0063778382352299,-0.00018294235167355,-0.00020318143714085,-9.8101969242222,1.0000302472825,-2.4654661901787e-05,1.212187742776e-05,0.86000001430511
0.0065215089575318,0.006486448708533,0.0064979956813788,-6.829457091681e-05,-8.7152206035382e-05,-9.8100812669694, , , ,0.87000000476837
0.0068094570369465,0.0068112278878548,0.0067943833413965,-0.00012671281755607,-0.00013858360066028,-9.8101221188924,1.0000498100279,-2.4654792629572e-06,5.2761109955213e-05,0.87999999523163
0.0071409253567663,0.0071418512389654,0.0071497321219166,-0.00013523154735451,-0.00014591128942511,-9.8101387290165, , , ,0.88999998569489
0.0078118347056229,0.0078467676753877,0.0078287782918705,-7.8185934700465e-05,-0.00010259853253499,-9.8100983884187,0.99996012688598,-3.1561242684294e-05,-4.9096766787828e-05,0.89999997615814
0.008022810126541,0.0080177810504554,0.0079825265052465,-8.7178469862676e-05,-0.00011735330626062,-9.8101009838126, , , ,0.91000002622604
0.0086847431025267,0.0086692964499388,0.0086627658876857,-0.00015986261054485,-0.00015780356961957,-9.8101644074218,1.0000901018298,-0.00013516348034409,-6.3759668308267e-05,0.9200000166893
0.0093216024479391,0.0093530461232722,0.0093400746352031,-0.00035055172640959,-0.00034457685995856,-9.8103626018745, , , ,0.93000000715256
0.010134529380301,0.010145864642811,0.010139092370549,-0.00035298863184885,-0.00035242437572151,-9.8103527304883,1.000058044289,9.8004434353203e-05,-2.2662120214908e-05,0.93999999761581
0.010078034939355,0.010045330294113,0.010076863961598,-0.00019558052560425,-0.00019248959335926,-9.8101891971842, , , ,0.94999998807907
0.0093259514170502,0.0093574462594262,0.0093101891875293,-0.00016142108623916,-0.00015785512537896,-9.8101507832734,0.99999971646856,-6.4033971637223e-05,1.3232050987292e-05,0.95999997854233
0.0078476307644698,0.0078256408253197,0.0077987076385366,-0.00020104728235385,-0.00021093098941844,-9.8102124877437, , , ,0.97000002861023
0.0084721301571336,0.008453423316167,0.0084866118790864,-0.0002120669908906,-0.00022389657225725,-9.8102053333985,1.0000036001076,0.00012990491691536,3.9280204379818e-05,0.98000001907349
0.0076011787299104,0.0076071925495275,0.0075863421235531,-0.0002615145386647,-0.00025841073110997,-9.810245376953, , , ,0.99000000953674
0.0075759181781983,0.0075623723180862,0.0075767650587031,-0.00021821225274214,-0.00019645897598945,-9.8101898245493,1.0000095553365,-9.8610021600762e-06,2.6925893878566e-05,1
0.008284052363685,0.0082501756258068,0.0082430921245181,-5.9983888045485e-05,-5.0118090432816e-05,-9.8100671792749, , , ,1.0099999904633
0.0090428437532761,0.0090617619280717,0.0090562645292591,-8.9614154711847e-05,-0.00010899750845822,-9.8101126557405,0.99994571783827,-6.4089246321704e-05,-4.4721128195044e-05,1.0199999809265
0.0088829739437129,0.0088955137923412,0.0088674275406628,-6.2648876186813e-05,-7.4942696079579e-05,-9.8100468770914, , , ,1.0299999713898
0.0078517365028872,0.0078778875823631,0.007848271781338,2.5728500272025e-05,3.7344722915268e-05,-9.8099504334559,0.99990666824037,-3.4410867781938e-05,-2.2586319853469e-07,1.039999961853
0.009112116397062,0.0090986167390925,0.0090939624442574,0.00010418778579563,0.00010681318967336,-9.809917059477, , , ,1.0499999523163
0.0094272885790022,0.0094440197062374,0.0094218578017274,0.00016825480510509,0.00013198538488816,-9.8098610471342,0.99998327036484,-1.0985029579902e-05,-6.7033876974099e-05,1.0599999427795
0.0098397750551106,0.0098301848280993,0.0098326958253362,0.00028418759481489,0.00027800327693976,-9.8096871093299, , , ,1.0700000524521
0.0096540975507199,0.0096246361268388,0.0096366004160882,0.00023835892753338,0.00023970461651729,-9.8097539939394,0.99991403300782,-8.7513182770813e-05,-5.9078429259416e-05,1.0800000429153
0.009801575082621,0.0097602947406469,0.009771392347513,7.4461416821407e-05,8.742806296648e-05,-9.8098974134939, , , ,1.0900000333786
0.010378154212398,0.010373539632731,0.010396041983711,6.9029257178037e-05,7.8441874822808e-05,-9.8099354362595,0.99995004824282,9.1028176934679e-05,-5.6279840533808e-05,1.1000000238419
0.011275786489502,0.011256714255552,0.011292483024344,-6.670500686316e-05,-9.2291478227078e-05,-9.8100937534676, , , ,1.1100000143051
0.010897236098728,0.010898626420481,0.010884810222391,-0.00021379104801732,-0.00022189000982308,-9.8102231788066,1.0000469989212,-3.2432431700118e-05,3.2160205702499e-05,1.1200000047684
0.010978499800187,0.010972077227631,0.010966890894666,-0.00023216430230212,-0.00024748877070189,-9.8102363979047, , , ,1.1299999952316
0.0099767539524275,0.0099323545276474,0.0099541243381243,-0.00015325841308512,-0.0001561555184048,-9.8101475629943,1.000130541728,-1.754852795918e-05,-5.7628317677787e-05,1.1399999856949
0.009417952091216,0.0094089937455731,0.0094264083386921,-0.00017533546495294,-0.00016552873392198,-9.8101798542889, , , ,1.1499999761581
0.0092162636680304,0.0092171298278104,0.0092386279964094,-0.00022107022639607,-0.00020316865867209,-9.8102018028329,1.0000355649297,6.26622091077e-05,-0.00011602539623031,1.1599999666214
0.0097935291033346,0.0098195919502066,0.0097975036899769,2.9143488089839e-05,2.450595801792e-05,-9.8099856519948, , , ,1.1699999570847
0.0087716632366823,0.0087707649238004,0.0087636578847005,-5.2911096500837e-05,-6.1842415417754e-05,-9.8100485642203,1.0000537132861,6.0739165245971e-05,-9.7885393901724e-05,1.1799999475479
0.009426916661642,0.0094240508578616,0.0094361740651286,-7.3159454340462e-05,-6.5346404801449e-05,-9.8100776097992, , , ,1.1900000572205
0.009322718805241,0.0093293125886276,0.0093202182932132,-0.00030386804939719,-0.00030874963420311,-9.8103149621944,0.99999710639454,1.8347706975325e-05,-6.3674789071583e-05,1.2000000476837
0.0095594272424668,0.0095398677033041,0.0095611209994804,-0.00042350916073913,-0.00043011923021597,-9.8104407334133, , , ,1.210000038147
0.0095778483627654,0.0095889298295347,0.0095833425775117,-0.00036915432286076,-0.00037656594676469,-9.8103547066775,1.0000641675316,1.577005397978e-05,4.185686971541e-06,1.2200000286102
0.0087763766207543,0.0087437189587422,0.0087160292840197,-0.00046408069599249,-0.00045506527821204,-9.8104640180168, , , ,1.2300000190735
0.0089043632052084,0.0088941339616218,0.0089061982529466,-0.00063893319797499,-0.00063399672606531,-9.810637561341,0.99989900193611,-3.1497895333477e-05,2.1267421381437e-05,1.2400000095367
0.0097886498585705,0.0097943797750292,0.009837630624063,-0.00054921466479927,-0.00056724018796482,-9.8105326840389, , , ,1.25
0.0097145352072407,0.0097162947731608,0.0097269540676742,-0.00038842767861906,-0.00041383146892287,-9.8104078138823,0.99995078467076,-5.5821132303503e-05,-6.2907910711769e-05,1.2599999904633
0.0091900245929056,0.0092084012488717,0.0092120740068372,-0.00038180816555101,-0.00038816593493852,-9.8103894103359, , , ,1.2699999809265
0.010478757230732,0.010485986878522,0.010442489311521,-0.00040570724173483,-0.00040885662763664,-9.8104205368235,0.99994052210187,1.2960721565654e-05,1.8584373554284e-05,1.2799999713898
0.0093522692940554,0.0093534308373198,0.0093712384842027,-0.00048075484884224,-0.000468317001345,-9.8104750225069, , , ,1.289999961853
0.0099069083210546,0.0099077576174904,0.0099088859304186,-0.00046151096505729,-0.00043730236508445,-9.8104389145886,1.0000199552243,3.4857319141652e-05,5.75381251873e-06,1.2999999523163
0.0099923454604264,0.0099958123084683,0.0099901136431139,-0.00040845703713506,-0.00041338189597394,-9.8104091391582, , , ,1.3099999427795
0.0094555863850822,0.009482220086929,0.0094861942634103,-0.00041989177536712,-0.00040280208199355,-9.8104315238488,1.0000102291925,2.122672377613e-05,1.5064994535062e-05,1.3200000524521
0.0094293011696798,0.0094301618909889,0.0094253745205281,-0.0003886289588905,-0.00038684055013499,-9.8104070698336, , , ,1.3300000429153
0.0093192382019803,0.0093234498040005,0.009337492525383,-0.00049292125880962,-0.00047665637906951,-9.8104667427127,1.0000513255184,-6.2748844109813e-05,3.2270135111987e-05,1.3400000333786
0.0094792934278816,0.0095039175158627,0.0094947649447446,-0.00046784794448465,-0.00045417767626015,-9.8104544210862, , , ,1.3500000238419
0.0089849288338074,0.0089914203332926,0.0090088514755936,-0.0004424163798163,-0.00043179895968241,-9.8104371959182,0.99992670418842,8.9332827433601e-05,-5.888547543843e-06,1.3600000143051
0.0085155090106375,0.0085194881511873,0.008485868282338,-0.00029136673219908,-0.00028363263758641,-9.810279341515, , , ,1.3700000047684
0.0084892937503667,0.0084858917696141,0.0084911114723979,-0.00048261047791364,-0.00050569441943674,-9.8104868538154,1.0000114074187,2.0596160489832e-05,1.919394493223e-06,1.3799999952316
0.0076560121529379,0.0075975253352022,0.0076370476189628,-0.00047242800649569,-0.00045726987642277,-9.8104647983607, , , ,1.3899999856949
0.0077487415666561,0.0077602661673087,0.0077479764090369,-0.00052730854480038,-0.00054285115262393,-9.8105233708337,0.99997202928288,1.6007083462698e-05,-1.9026647163755e-05,1.3999999761581
0.0080389501699785,0.0080265609177618,0.0080536838359473,-0.00048682428564862,-0.00049034816101317,-9.8105015955983, , , ,1.4099999666214
0.0071384051563144,0.0071697731311964,0.0071390730984932,-0.00054272112488871,-0.00052746338814051,-9.8105328391711,1.000053725978,-6.3910821252804e-05,-1.9738439109993e-05,1.4199999570847
0.0077725782643517,0.0077727139004824,0.0077674839744029,-0.00051177534527368,-0.00050785511338335,-9.8105005267156, , , ,1.4299999475479
0.0072502576422898,0.0071937549797999,0.0071905123882245,-0.0005201351854448,-0.00053669093282033,-9.8105063029699,1.0000551496168,-4.3492319215166e-05,-5.4481053812116e-05,1.4400000572205
0.0073456279651759,0.007364014947044,0.0073555795392692,-0.00046607186187131,-0.00045587868586644,-9.8104717964743, , , ,1.4500000476837
0.0074875023007166,0.007475299316275,0.0074629385239421,-0.0005441729672132,-0.00056732618382791,-9.810555051965,1.0000089746306,-1.0092524661236e-05,5.8748900074966e-05,1.460000038147
0.0091089404527126,0.0091262651893301,0.0091343292970554,-0.00048453321819714,-0.00049470739454823,-9.8104953016062, , , ,1.4700000286102
0.0083111446431524,0.0083232778908876,0.0082924263817976,-0.00053721054673952,-0.0005518770215711,-9.8105601976192,0.99992912228288,0.00011952552533883,-7.001577921183e-05,1.4800000190735
0.0086439072752069,0.0086226426666518,0.0085984403186716,-0.00053793699447551,-0.00054430471373644,-9.8105528081448, , , ,1.4900000095367
0.0094252535020137,0.0094279030522592,0.0094619682237286,-0.00054710919073379,-0.00052608666774509,-9.810546539518,0.99993714677971,2.0413668687774e-05,-1.9048308477989e-05,1.5
0.010089381146056,0.010103733743898,0.010089537743513,-0.00049837976815984,-0.00049872460904637,-9.8105088751155, , , ,1.5099999904633
0.010103485093985,0.010105374397907,0.010110777786455,-0.00056332444530527,-0.00056407084094211,-9.8105718991201,1.0000233371634,6.6706437898551e-05,-3.9550822399484e-05,1.5199999809265
0.010010555707233,0.010011927655967,0.010009694129518,-0.00067869695950256,-0.00065634443150721,-9.8106616465064, , , ,1.5299999713898
0.009508377988075,0.0095242444184371,0.0095042120633401,-0.0006154300387122,-0.00062268835751448,-9.8106219094051,1.0000041144616,-5.5926923122802e-06,2.0444545081008e-05,1.539999961853
0.010273827826714,0.010251159111271,0.010259643420235,-0.00073370841971306,-0.00071873710687838,-9.8107277242433, , , ,1.5499999523163
0.0096975974837751,0.0096521778006106,0.0096485820284454,-0.00070386708699619,-0.0007186637900212,-9.8107258027543,0.9999870481116,9.3999233103368e-05,-2.4633511633852e-05,1.5599999427795
0.010623265323662,0.010571031779854,0.010598131142997,-0.00079866514651909,-0.00080535779520922,-9.8108000938778, , , ,1.5700000524521
0.010620321929929,0.010621575197199,0.010609320698061,-0.00079617073233051,-0.00078314788372296,-9.8107942004892,0.99999653498905,1.7331739216034e-05,3.1741043794894e-05,1.5800000429153
0.0096760496396934,0.0096760321542367,0.009679412845061,-0.00079028229550947,-0.00077968182098029,-9.8108006463428, , , ,1.5900000333786
0.0082727182730911,0.0082878851235172,0.0083048511635683,-0.0009111170151296,-0.00088313873984573,-9.8109093087656,1.0000371060141,-1.6807683026402e-05,5.8878245339073e-05,1.6000000238419
0.0087950641586589,0.0087732228721295,0.0088050598861395,-0.00097770709762986,-0.00097432633027867,-9.8109972292159, , , ,1.6100000143051
0.0093589688759925,0.0093839893203948,0.0093410595233331,-0.00090708502142218,-0.00088406941347973,-9.8108849781882,0.99999968044889,-1.5147110832448e-05,4.1350774775371e-06,1.6200000047684
0.0090746041885783,0.0090746303419781,0.0090539737638253,-0.00094733476707564,-0.00094086284384121,-9.8109394128987, , , ,1.6299999952316
0.010300302557688,0.010300604921715,0.010304301561747,-0.00081841639943819,-0.00081324302753662,-9.81080470525,1.0000322887318,8.3998222208028e-05,0.00011798025742231,1.6399999856949
0.0091851011977477,0.009156597874377,0.009201792840527,-0.0008664871327297,-0.00087729362269179,-9.8108490511544, , , ,1.6499999761581
0.009034089317468,0.0090509174744863,0.0090416713464478,-0.00092424255328972,-0.00091786022194554,-9.8109288846771,1.0000305346769,0.00010497981876419,2.1925545100001e-06,1.6599999666214
0.010465958696045,0.010486879541507,0.010497040857603,-0.0008301195919715,-0.00082814934041389,-9.81081363565, , , ,1.6699999570847
0.011313345254755,0.011325806685724,0.011347907238523,-0.0008620952839332,-0.00085959761769484,-9.8108413953779,0.9998690206134,6.6425333758281e-05,-4.6221529462825e-05,1.6799999475479
0.011412144836813,0.011447158045044,0.011427640202724,-0.00086337228448306,-0.00087710985002779,-9.8108593256368, , , ,1.6900000572205
0.010222029403074,0.010211251447212,0.010207724601242,-0.0010528039467121,-0.0010374878619449,-9.8110439835728,1.000038556561,-4.405716532542e-05,-8.2697320047704e-05,1.7000000476837
0.0093650244883401,0.0093723195172471,0.0093906674180584,-0.0010688854543651,-0.0010520382273726,-9.8110550931813, , , ,1.710000038147
0.0098695297784902,0.009879375281097,0.0098707158842269,-0.0010214166217734,-0.0010132186871649,-9.8110172057262,1.0000149993239,-7.7143399014494e-05,2.783773419668e-05,1.7200000286102
0.011207369794541,0.01119155297576,0.011178529514834,-0.0013335797804473,-0.0013143922722022,-9.8113214335214, , , ,1.7300000190735
0.011891966287034,0.011874320498138,0.011872303252681,-0.001414208832324,-0.001409755487953,-9.8114159986107,0.99999648009903,1.3018349141579e-05,2.403451019881e-05,1.7400000095367
0.012875797717344,0.012882643793847,0.012849026352356,-0.0014948043751694,-0.0014955221084198,-9.8115057745927, , , ,1.75
0.014820912879937,0.014839187521219,0.014768593102147,-0.0014672753442495,-0.0014569186168884,-9.8114577085835,1.0000350368332,-1.6307786897832e-06,6.2421582423136e-05,1.7599999904633
0.012836029455492,0.012832376270554,0.012828702772818,-0.0014510510095446,-0.0014463590658068,-9.811466865518, , , ,1.7699999809265
0.013053662857493,0.013063408843376,0.013074638717095,-0.0013328442771019,-0.0013289230167512,-9.8113317601734,1.0000405687234,3.0849630239265e-05,5.080747275109e-05,1.7799999713898
0.01331930314475,0.01332422508666,0.01334049015546,-0.0014419532609174,-0.0014228536010088,-9.8114437196764, , , ,1.789999961853
0.012568926071483,0.012571515434011,0.012568406837677,-0.0014245116407871,-0.0014012025068967,-9.8114170480373,0.99991695308346,2.4605019192122e-06,3.1754575255969e-05,1.7999999523163
0.01170862933277,0.011720905874385,0.011754312227239,-0.0013815314935382,-0.0013743463433125,-9.8113827435096, , , ,1.8099999427795
0.012561662707814,0.012566238247164,0.012590519250867,-0.0014656248309405,-0.0014633307426343,-9.8114794664256,0.99994067361189,0.00012213555512077,5.1243437311699e-05,1.8200000524521
0.013265549979799,0.013229688479633,0.013237699020408,-0.0015277913203085,-0.0015140946166608,-9.8115259896194, , , ,1.8300000429153
0.012362335390332,0.012381881173527,0.012368921042083,-0.0014583682893191,-0.0014387925578226,-9.8114473204291,0.99992569322694,-3.9906608571026e-06,2.1925840898102e-05,1.8400000333786
0.012791674308219,0.012795402405907,0.012795807397574,-0.0013513801598436,-0.0013626993793835,-9.8113743544865, , , ,1.8500000238419
0.013592211131501,0.013579927975725,0.013590970685673,-0.0014204512273037,-0.0014467363318204,-9.8114320794159,1.0000361971337,0.00010484697909363,-6.3646059205378e-05,1.8600000143051
0.013744859564938,0.013714818608056,0.013719203745112,-0.001474126606227,-0.0014659702043546,-9.811467738047, , , ,1.8700000047684
0.013238882697317,0.013218819761044,0.01323006187658,-0.0013736582837119,-0.0013767063287965,-9.8113784163123,0.99991765545345,-7.1162752655898e-06,-4.5829652421756e-05,1.8799999952316
0.01436935179537,0.014399611537421,0.014363541840117,-0.0013257879048274,-0.0013199318359341,-9.8113267945762, , , ,1.8899999856949
0.013730586855557,0.013748457327763,0.013716064549879,-0.0011581674814592,-0.0011703996780191,-9.8111808119819,1.0000561488815,5.4974706539183e-05,-2.083444009224e-05,1.8999999761581
0.012820316908589,0.012833778651424,0.0128372706393,-0.0011799814831371,-0.0011450861648495,-9.8111759205577, , , ,1.9099999666214
0.013161262641013,0.013128333751727,0.013136947117261,-0.0010524851663657,-0.0010438747786318,-9.811055401327,0.99999306093693,3.651564095398e-05,-1.3957034292479e-05,1.9199999570847
0.013802558369367,0.013768206801245,0.013748965078564,-0.0011671303156473,-0.0011811575680581,-9.811190780041, , , ,1.9299999475479
0.014631740496332,0.01462629401823,0.014640449195376,-0.00121790061148,-0.0011869534577938,-9.8111881117621,0.99990596214747,-2.1738601533091e-05,-3.2674815767376e-06,1.9400000572205
0.014283394292698,0.014283506359248,0.014280441019902,-0.0011995249230411,-0.0012020626406048,-9.8112088513891, , , ,1.9500000476837
0.014239908925968,0.014234750485268,0.014263950421027,-0.00098286565105576,-0.0010024209366755,-9.8110016676072,1.0000261897411,1.01455448375e-05,-5.0689919506713e-05,1.960000038147
0.014379928513692,0.014364920845426,0.014371984324917,-0.00097265356179494,-0.00097657451524157,-9.8109716094658, , , ,1.9700000286102
0.014448772616225,0.014459267292369,0.0144284516297,-0.0010190743812947,-0.0010455550695705,-9.8110422368781,1.0001300942209,-3.6610289962939e-05,-2.371343496019e-05,1.9800000190735
0.013713368224167,0.013726715138755,0.013741290706881,-0.00095703450693822,-0.00094886303781991,-9.8109502525718, , , ,1.9900000095367
0.012027162200101,0.012025755033445,0.012044938625815,-0.00097449221160541,-0.00098333815644268,-9.8109828577126,0.99997242176688,6.4622948833138e-05,2.2995104682117e-05,2
0.011836291992018,0.01178915658483,0.011776033727483,-0.0010729832387148,-0.0010693410810234,-9.8110880670042, , , ,2.0099999904633
0.01183523144223,0.011873322615676,0.011857979636377,-0.0012105505739127,-0.0012085675350921,-9.8112054405956,0.99996190577424,-2.6192618797052e-05,8.090210498082e-05,2.0199999809265
0.012261865766581,0.012242437063562,0.012262768386338,-0.0010569647793423,-0.0010715133332116,-9.8110686159129, , , ,2.0299999713898
0.013501498283538,0.013499003159156,0.013487727132432,-0.0011162780175901,-0.0011233785129745,-9.8111225945338,0.99997243996345,-6.4010879807396e-05,0.00011131859187173,2.039999961853
0.013358854249647,0.013344461105674,0.013341557281057,-0.001109831801635,-0.0011135164278307,-9.8110932221457, , , ,2.0499999523163
0.013325104090776,0.013302376060933,0.013352406692088,-0.0011651991519969,-0.0011487621772993,-9.8111511190602,1.0000619982409,3.9020695289238e-05,-4.1090156478661e-05,2.0599999427795
0.013501738490441,0.013507979024015,0.013507945576861,-0.0010986243283142,-0.0010898764453519,-9.8111123693386, , , ,2.0699999332428
0.013789161458101,0.013787076716489,0.013799669420915,-0.0011063929716695,-0.0010857774087099,-9.8111010796756,0.99997273363541,1.7179640115911e-05,3.7880103063128e-06,2.0799999237061
0.014431501587465,0.014439048676802,0.014419998472886,-0.001121489831383,-0.0011217966149046,-9.8111155896196, , , ,2.0899999141693
0.013944764377379,0.013988197651936,0.013937249880165,-0.00094967494196785,-0.00095462174787815,-9.8109577707506,1.00003721039,0.00010145968455848,8.6809295552991e-05,2.0999999046326
0.014494339935828,0.014498878996746,0.01448720790302,-0.00095538333451894,-0.00097914882950852,-9.810966767555, , , ,2.1099998950958
0.014893386417006,0.014881620564645,0.014854670139711,-0.0010224254029666,-0.0010243543443315,-9.8110371214132,1.0000218680771,2.8544652474573e-05,0.00011271375403656,2.1199998855591
0.014877583668078,0.014915621939172,0.014905127058766,-0.0010210803971616,-0.0010360652361432,-9.8110088140798, , , ,2.1300001144409
0.013527955224548,0.013524653537419,0.013534667819909,-0.0010879920549708,-0.0011008581296584,-9.811105023737,1.0000017695823,6.9223736212665e-05,2.7220478555836e-05,2.1400001049042
0.014565682852859,0.014578827069086,0.014580951844701,-0.001105028937837,-0.0011149617109088,-9.811124511508, , , ,2.1500000953674
0.013762420797114,0.013773049587828,0.013715402418646,-0.0011810363493683,-0.0011847610255991,-9.8111866769183,1.0000663065717,-8.8842584070951e-05,-2.0690320121551e-05,2.1600000858307
0.014490643856059,0.014502128648255,0.014480051644912,-0.0011605806802784,-0.0011692331084396,-9.8111820255518, , , ,2.1700000762939
0.014005149194341,0.014023104850632,0.014020214595276,-0.0010143878078296,-0.00099469119854509,-9.8110091536329,1.0000720678189,4.3978156898863e-05,-1.3425408193208e-05,2.1800000667572
0.01370540517145,0.013706482576196,0.01369640716316,-0.00097330750631183,-0.00097952692318799,-9.8109638827668, , , ,2.1900000572205
0.01392679964496,0.01389911519202,0.01390938499108,-0.00098083212176548,-0.00098439901081374,-9.8109712172054,0.99999251933032,9.672101326728e-05,-8.2275611115263e-05,2.2000000476837
0.014980356453035,0.015016613508423,0.015016026044462,-0.00092980896383912,-0.00093126352653794,-9.8109283339861, , , ,2.210000038147
0.014796837159547,0.014797233005869,0.014817387850565,-0.00091509923258177,-0.00092018414289361,-9.8109266131205,0.99998029238064,4.32759966921e-05,3.9821874850756e-05,2.2200000286102
0.014836405031322,0.014820650957883,0.014839977338737,-0.00084289364307312,-0.00083413517268814,-9.8108541361948, , , ,2.2300000190735
0.014403322390482,0.014385450995438,0.014381245190513,-0.00077203300110257,-0.0007745878661178,-9.8107930287124,0.99999217109801,9.9281646530208e-05,3.481580228428e-05,2.2400000095367
0.014591857474055,0.014600520945153,0.014604556951652,-0.000770409533829,-0.00076312417516581,-9.8107809310385, , , ,2.25
0.014192040684541,0.014229228640264,0.014239982174034,-0.00094183912193816,-0.00093346701566035,-9.810951122066,1.0000079349609,-7.3089538101195e-05,7.8039156329561e-05,2.2599999904633
0.013219817514718,0.013230130876067,0.013254088771489,-0.00087465562541381,-0.00086981064404644,-9.8108703723141, , , ,2.2699999809265
0.012381630425757,0.012378212298829,0.012409914481273,-0.00090087854140332,-0.00089429207726312,-9.8109100316052,0.99991742889618,-9.4827586149801e-06,7.5434012254312e-05,2.2799999713898
0.012594954737054,0.012583949727982,0.012591625329614,-0.00082730021667778,-0.00085650287411859,-9.8108400427288, , , ,2.289999961853
0.01401642756697,0.014034685201284,0.014034111777588,-0.00083840886997717,-0.00083733935129269,-9.8108385043919,1.0000091504019,2.7334455004315e-05,-1.9748339371148e-05,2.2999999523163
0.013838922065254,0.013848827547038,0.013835650972047,-0.00073155029127486,-0.00073331112074432,-9.8107179752588, , , ,2.3099999427795
0.013250568651644,0.013293244979066,0.013247430521831,-0.00067430117333078,-0.00067767414296771,-9.8106764238493,1.0000228026869,6.9131671789509e-05,4.3404750634842e-05,2.3199999332428
0.013050934993107,0.013049673504578,0.013054012096724,-0.00055951103179097,-0.00055559767997911,-9.8105331487467, , , ,2.3299999237061
0.014348022000309,0.014365918752863,0.014358569086573,-0.000398055280205,-0.00040046176477711,-9.81040456674,1.0000020292653,7.0605630121425e-05,8.3235666578701e-06,2.3399999141693
0.013847276847209,0.013865252599487,0.013861796559801,-0.00029786316803998,-0.00027404509271359,-9.8102971390402, , , ,2.3499999046326
0.01428195609441,0.014290678450559,0.014297662341038,-0.00022948276685525,-0.00023318886635949,-9.810233324814,0.99994629771996,2.227074399346e-05,-3.841530036488e-05,2.3599998950958
0.014988149776076,0.015005650046918,0.014974447200905,-0.00019176535769604,-0.00021575823754888,-9.8101970506899, , , ,2.3699998855591
0.014160634248715,0.014164751357762,0.014184608206892,-0.00017333860503929,-0.00020625187228922,-9.8101985422845,1.0000433951595,4.5251682829381e-05,3.4503117089897e-05,2.3800001144409
0.01469510880396,0.014710894844035,0.014688752564263,-0.00018113447795917,-0.00017883425907524,-9.8101852888024, , , ,2.3900001049042
0.015217658236491,0.015210798954417,0.015195903779021,-0.00017438909789014,-0.00016960530270608,-9.8101549524945,1.0000175752852,3.3839810515675e-06,-7.9517892708939e-05,2.4000000953674
0.015548411589164,0.015559447067781,0.015575918639134,-0.00038577057794128,-0.00040484900686964,-9.8103700127772, , , ,2.4100000858307
0.016669427523962,0.016659861063106,0.016663083416933,-0.00032843333149424,-0.00031976674083802,-9.8103208462069,0.9999355412674,-2.5215762733888e-05,6.6090194812694e-05,2.4200000762939
0.017647449683889,0.017619280792188,0.017616233096446,-0.00017347717293643,-0.00017365013397356,-9.8101731222372, , , ,2.4300000667572
0.017076064678927,0.017088154680318,0.017061043448629,-0.00026643799097317,-0.00024826111437816,-9.8102450345703,0.99985809191353,4.1512950642268e-05,2.510573376001e-05,2.4400000572205
0.017635841839676,0.017649283615175,0.01761953864387,-0.00026180567938684,-0.00025149463717734,-9.8102247217911, , , ,2.4500000476837
0.017928074489645,0.017928043010799,0.017934760342524,-0.00019025161916088,-0.00017054260605459,-9.8102001086362,1.0000114092614,1.3222945995314e-05,6.8667278939954e-05,2.460000038147
0.018328150556282,0.018333338433298,0.018318366506623,-0.00011024775934114,-9.7455442152366e-05,-9.8101096018175, , , ,2.4700000286102
0.017818194112374,0.017812854816943,0.017848637300721,-0.00010034668292684,-0.00010841833492746,-9.8101035030984,0.99996007331034,-5.4121777603571e-05,1.0738981485431e-05,2.4800000190735
0.017496066085775,0.017536610672489,0.017512924441955,-0.0001445438193684,-0.00013825667861157,-9.8101600700663, , , ,2.4900000095367
0.017571413200607,0.017573241429634,0.017589969488821,-0.00018432147366953,-0.00018520991351124,-9.8101823040784,1.0000442007361,2.6624282757297e-05,-6.037852040953e-05,2.5
0.018332132809171,0.018380154057899,0.018337778460095,-0.00017986380548635,-0.00019092884662864,-9.8102015520799, , , ,2.5099999904633
0.016949168531895,0.016940155340996,0.016937242137312,-0.00037243063875446,-0.0003547814232721,-9.8103623095643,1.0000592780398,5.0903321705037e-06,7.6335226686636e-05,2.5199999809265
0.016494027081502,0.016451032231513,0.016450203984644,-0.00024176544946704,-0.00023339210259494,-9.8102612202579, , , ,2.5299999713898
0.01698552112205,0.016969510752224,0.016984154668758,-0.00033000993750462,-0.00033752651994024,-9.8103309230874,1.0001477059369,-4.4949160568388e-05,6.2516577155625e-05,2.539999961853
0.016296543958574,0.016287939726457,0.01628215564098,-0.00030714155260921,-0.00030519431226706,-9.810320464205, , , ,2.5499999523163
0.016541530091547,0.016556218755921,0.016535456404908,-0.00039761468355892,-0.00038342441662464,-9.8104074316076,1.0000492081509,0.00010942431273614,3.6611658840005e-05,2.5599999427795
0.016752345854867,0.016745163349117,0.016774719249225,-0.00034112083181637,-0.0003252938325431,-9.8103338736112, , , ,2.5699999332428
0.016887458167443,0.016902596598758,0.016886397132492,-0.00036394435559432,-0.00035925669828795,-9.810382049763,1.0000797744094,-7.752716000322e-05,-1.6801985001931e-05,2.5799999237061
0.016985952229414,0.016990967020443,0.01699831681113,-0.00037829201007208,-0.00036927002812632,-9.810357836591, , , ,2.5899999141693
0.017195790438851,0.017186537849774,0.017168880992524,-0.00036902431070117,-0.00037085449278062,-9.8103562131362,1.0000158195143,-8.8380509457694e-05,-1.631284694481e-05,2.5999999046326
0.016915680133122,0.01692224291215,0.016946434541966,-0.0004062413493342,-0.00041354770507197,-9.8104101615324, , , ,2.6099998950958
0.01652344538422,0.016513385611003,0.016485374468379,-0.00043467248982629,-0.00043145296783264,-9.8104350692179,1.0000637460766,6.8354345081947e-06,-8.4053756120161e-06,2.6199998855591
0.015569959659491,0.015569112993052,0.015521713526251,-0.00048056210386974,-0.00047045558337507,-9.8104966759634, , , ,2.6300001144409
0.016060638205532,0.016062848238548,0.016070484989486,-0.00026747535369873,-0.0002386049055827,-9.810258259357,0.99996778757668,-2.3572977224875e-05,8.8093564585283e-06,2.6400001049042
0.016196572702951,0.016158510531009,0.016164081205214,-0.00012463674668077,-0.00015118443384261,-9.8101511326608, , , ,2.6500000953674
0.01601078566148,0.015997630908814,0.015996178257228,1.4689577840281e-05,2.2371255817e-05,-9.8099774578952,0.99996795240116,5.3982449681311e-05,2.7771976623204e-05,2.6600000858307
0.01567107893057,0.01565201538906,0.0156625246539,-5.6266086506152e-05,-8.4689422968268e-05,-9.8100679027788, , , ,2.6700000762939
0.015878966479938,0.015833886099921,0.015862246607521,-0.00026994123114379,-0.0002733433552831,-9.8102742391181,0.99999608822454,1.6292298539921e-05,-2.6986540150292e-05,2.6800000667572
0.015598287031235,0.015575603880026,0.015588733653795,-0.00038320321592775,-0.00037789008166595,-9.8103741968276, , , ,2.6900000572205
0.016117925655742,0.016126146189239,0.016148903921271,-0.00034317618832596,-0.00034834701961141,-9.8103340951049,1.0000440516743,-5.6621426307071e-05,2.5458654878518e-05,2.7000000476837
0.014843929377787,0.014837870833456,0.014823163206978,-0.00032900668206504,-0.00029436005896847,-9.8103205217852, , , ,2.710000038147
0.01487200046063,0.014880252470307,0.014911008043414,-0.00038730359824502,-0.00036575158206065,-9.8103841754734,1.0000294045001,1.5789920794152e-05,0.00011565771155971,2.7200000286102
0.014232309096889,0.014215023722284,0.014217075299309,-0.00047420748020293,-0.00049013291985561,-9.8104978227467, , , ,2.7300000190735
0.014178769143435,0.014154057237461,0.014178126312769,-0.0003279936210023,-0.00031638205179874,-9.8103024374735,0.99993843396583,2.275581274308e-05,5.6857313133162e-06,2.7400000095367
0.014551786258344,0.01457576203895,0.014574860424262,-0.0003053264155155,-0.00028858359312946,-9.8102889637986, , , ,2.75
0.013463659330268,0.013466341306513,0.013472960277071,-8.5147769157495e-05,-9.086388440906e-05,-9.8100959999196,1.0000236470149,-3.2905070737028e-05,4.7944714101177e-05,2.7599999904633
0.013231404269466,0.013256183867019,0.013221735149447,-4.4450844922955e-07,-1.6200087777444e-06,-9.8100051920543, , , ,2.7699999809265
0.014065994343523,0.014038906234957,0.014020209956843,0.0001221280912941,0.00011526129163868,-9.8098990344197,1.0000210217109,-2.76711817026e-05,4.4987269906697e-06,2.7799999713898
0.013997351977241,0.013975710569326,0.013983639976799,0.00017955605988086,0.00016799113510599,-9.8098290604367, , , ,2.789999961853
0.015385357006035,0.015360681789622,0.015383920588191,0.00014093508446355,0.00013180532996333,-9.8098535423422,0.99997768830684,4.7536169505966e-06,-9.6188276966025e-05,2.7999999523163
0.014489326066388,0.01448103380332,0.014452367599127,0.00022683520738941,0.00021456919275544,-9.8098020018908, , , ,2.8099999427795
0.015638051311688,0.01562724130321,0.015633435097969,6.7376076116144e-05,6.1903907940349e-05,-9.8099349502426,1.0000386716179,-4.9799597816198e-05,1.7596733084745e-05,2.8199999332428
0.016119874991941,0.016117931812917,0.016111269059437,0.00010251965335074,0.000100421096399,-9.8098963706338, , , ,2.8299999237061
0.015980298569811,0.015986393357814,0.015976931647804,2.033198609059e-05,4.88756480366e-06,-9.8100074549015,0.99998879913017,-6.2060347416839e-05,-7.183345165652e-05,2.8399999141693
0.016328568294098,0.01631732603873,0.016326851583946,7.957443292866e-05,0.00010333298184304,-9.8099241963584, , , ,2.8499999046326
0.018352989818741,0.018355504521446,0.018385887235207,-0.00013491184972242,-0.00013438677140015,-9.8101396735434,0.99993597828985,9.7994363381056e-05,5.1841018855499e-06,2.8599998950958
0.017416337576549,0.017374388111845,0.017401433640543,-0.00017970839055407,-0.00017033490035308,-9.8101505917731, , , ,2.8699998855591
0.016997782497258,0.016999630752117,0.01701488175877,-0.00023986464872746,-0.00024299017616973,-9.8102585705228,1.0000571198672,-5.7728754725794e-05,-5.21239632844e-06,2.8800001144409
0.015799478195912,0.015786871500355,0.015770013930244,-0.00036189501131236,-0.00035168701927542,-9.8103780725318, , , ,2.8900001049042
0.016620116016846,0.016612129911225,0.016633574185404,-0.00055104350147458,-0.00055631898375882,-9.8105623659502,1.0000484150611,-4.4517939065938e-05,6.9543748324e-06,2.9000000953674
0.017750373029088,0.017761534632824,0.017744657506512,-0.00044974375169981,-0.00046980067691721,-9.8104486088158, , , ,2.9100000858307
0.018227619567434,0.01822343774543,0.018213159554836,-0.00042083762895265,-0.00044011377602533,-9.8104234006497,0.99998468441664,-6.0167709230243e-05,5.4309208382591e-05,2.9200000762939
0.018616290079538,0.018604229591688,0.01857070366744,-0.00043105641703899,-0.00044484619159579,-9.8104432957819, , , ,2.9300000667572
0.019406767252728,0.019417777935488,0.019403224510968,-0.00044508564020437,-0.00044234188821902,-9.810442671005,0.99994972985668,4.0865745210763e-05,-4.3361966608789e-05,2.9400000572205
0.018643685096025,0.018669642575917,0.018675979278084,-0.00036623215231812,-0.00038761472316271,-9.8103740822213, , , ,2.9500000476837
0.018291210978171,0.018306930992758,0.018283705025254,-0.00040269885947809,-0.00041373613993598,-9.8104059527644,0.99996530131911,-2.050574188212e-05,1.5606646297495e-05,2.960000038147
0.018802144865084,0.018796372362293,0.018789771547569,-0.0005322438685898,-0.00051234405212793,-9.8105028680684, , , ,2.9700000286102
0.019373660732553,0.01936076858384,0.019358781796374,-0.00039711086863019,-0.00040153909736258,-9.810396973492,0.99999091916923,9.2809108400654e-05,9.9916180698883e-05,2.9800000190735
0.018906666927502,0.018899592441382,0.018925907531826,-0.0004708882871606,-0.00046523511187619,-9.8104564647542, , , ,2.9900000095367
0.018458493656106,0.018451353364396,0.018445992419751,-0.00052612838388642,-0.00052966622388886,-9.8105301530163,1.0000632223588,-0.00011107041771939,-6.0753906310103e-05,3
0.017818943368095,0.017810863902425,0.017828338095268,-0.00043171369137205,-0.00043688833047911,-9.8104316439736, , , ,3.0099999904633
0.018383836148493,0.018361850271513,0.018367817321898,-0.00033119991632239,-0.00034008646755133,-9.8103473579073,1.000008510218,-1.5804428507582e-05,-7.0469426092644e-06,3.0199999809265
0.018524919948815,0.018527250092768,0.018534299651867,-0.00032086076519216,-0.00032116292089395,-9.8103167259027, , , ,3.0299999713898
0.0192410074024,0.019220903636623,0.019249055854212,-0.00039548919658883,-0.00037742677573163,-9.8103865833456,1.0000595584077,-7.2384347057878e-05,-3.3105779618633e-05,3.039999961853
0.019656401705071,0.019678342107785,0.019681905670799,-0.00052701108098118,-0.00053585113241971,-9.8105073696811, , , ,3.0499999523163
0.019042866845373,0.019052811841816,0.019049281293005,-0.00041076295790583,-0.00045004278660446,-9.8104441809782,1.0000022853447,-5.6404195552281e-05,7.3575669339539e-05,3.0599999427795
0.017932000797426,0.017929454485635,0.017924824933423,-0.00034598879232862,-0.00034269515167159,-9.8103302052246, , , ,3.0699999332428
0.017321115405194,0.017319802102978,0.017330274423831,-0.0003119664825698,-0.00029898427991287,-9.8103086310766,1.000044005178,1.3843637913968e-05,3.7665995411041e-05,3.0799999237061
0.017379641807834,0.01738141088723,0.017386328283958,-0.00034152644342005,-0.00032158180502924,-9.8103558521267, , , ,3.0899999141693
0.015556751875382,0.015592500909822,0.015581059376297,-0.00035912165625436,-0.00034807328101167,-9.8103479371719,1.0000286829691,-6.1139535810145e-05,6.65021852938e-05,3.0999999046326
0.01543045570427,0.015434980823255,0.015420009349035,-0.0003786478483145,-0.00039871212648231,-9.8103788687335, , , ,3.1099998950958
0.014245294252671,0.014240405943547,0.014225450012915,-0.00037393820472696,-0.00038949745503476,-9.8103907196884,0.99998707469874,-7.376227384791e-05,-2.9167661200324e-05,3.1199998855591
0.015681979443419,0.015676949575686,0.015679191403358,-0.00032612721758735,-0.00032912199705547,-9.8103338953569, , , ,3.1300001144409
0.01457595862152,0.014583565277429,0.014588684001151,-0.00035800046729825,-0.00033872662642781,-9.8103660605962,0.99992771717211,-5.7338871078167e-05,5.7232576018413e-05,3.1400001049042
0.014287596752659,0.014268675592306,0.014301960666405,-0.00026214530675963,-0.00027082387531971,-9.8102704740521, , , ,3.1500000953674
0.013321375379365,0.013344875670613,0.013374660377837,-0.00019539990823241,-0.00018054702977874,-9.8102032063665,1.0000091574243,6.6481174283057e-05,-4.8349537575603e-05,3.1600000858307
0.012598920801161,0.01258308588723,0.01261343099353,-0.0001045396179403,-0.00010311649447183,-9.8101207578829, , , ,3.1700000762939
0.013636884514228,0.013629247318098,0.013629805491714,-0.00021221589291117,-0.0002356551120402,-9.810230719316,0.99999237027284,1.6752776120681e-05,-2.1984000929225e-05,3.1800000667572
0.012790487788052,0.012786558863793,0.012788093330592,-0.00040507015218145,-0.00044922123933526,-9.8104117804495, , , ,3.1900000572205
0.013053244278032,0.013029521446187,0.013087374437759,-0.00048172525154372,-0.00044621721993367,-9.8104720263048,1.0000226190557,-2.4552312073365e-05,-5.0842911456055e-05,3.2000000476837
0.013230981218886,0.013223075166775,0.013220508207266,-0.00057790491410431,-0.00056483370497087,-9.8105829475003, , , ,3.210000038147
0.014033623074319,0.014025667274552,0.01403040989832,-0.00051065036694669,-0.00050756352852422,-9.8105147051417,0.99995684924466,-1.94572680705e-05,-4.1207599958666e-05,3.2200000286102
0.013819245193199,0.013785727430381,0.013794751433369,-0.00047227564117717,-0.00048202097095196,-9.8104705880414, , , ,3.2300000190735
0.013435294246693,0.013417801910973,0.013443276773805,-0.0004572865360744,-0.00047757654381394,-9.8104932432471,1.000076167657,-6.3570968579361e-06,5.1793725340343e-05,3.2400000095367
0.014756388848624,0.014775524809999,0.014740848106244,-0.0005307363366293,-0.00051062460980511,-9.8105222902455, , , ,3.25
0.01602750013323,0.015989711175021,0.016005332411505,-0.00046103609289704,-0.00044787168409155,-9.8104498130942,0.99999999086787,9.3368611387934e-05,6.0327860437675e-05,3.2599999904633
0.015504674382355,0.015502186431099,0.015489471047715,-0.0004268015878757,-0.00041449072825689,-9.8104427904733, , , ,3.2699999809265
0.015166536078433,0.015165757399091,0.015144358811459,-0.0005071676388164,-0.00051390368749855,-9.8105044226207,0.99995358373443,-3.9038967750484e-05,4.4932795429695e-05,3.2799999713898
0.017652410874765,0.017642989722879,0.017637944048814,-0.00046972985594248,-0.0004814473276622,-9.8104780525821, , , ,3.289999961853
0.016264085063374,0.016275631510556,0.016251846114406,-0.00041409411986041,-0.00040035784542518,-9.8103948610136,0.9999572121253,-1.0367619238024e-05,4.0385596439103e-05,3.2999999523163
0.015638428588398,0.015635331747158,0.015665345085357,-0.00040029939506713,-0.0004195475493311,-9.8104024242939, , , ,3.3099999427795
0.015216293602831,0.015215085410143,0.015212668094614,-0.00046010785549336,-0.00044777811078919,-9.8104596541695,0.99995859052403,2.3927623268993e-05,-1.7745072933851e-05,3.3199999332428
0.014833191776076,0.014843796358841,0.014833531711338,-0.00039645526502367,-0.00039965866015559,-9.8103781255834, , , ,3.3299999237061
0.015586573186692,0.015565272162185,0.015546020739408,-0.00055829697232605,-0.000525356371788,-9.8105324911831,1.0000276166042,-3.4181673948962e-05,-5.9630950391823e-07,3.3399999141693
0.015593242451343,0.015588169837518,0.015604218488656,-0.0004224029914058,-0.00044823319021541,-9.8104323579712, , , ,3.3499999046326
0.015876317098997,0.015839261768344,0.015865088845229,-0.00052551119362167,-0.00051379234987205,-9.8105361374476,1.0000394036102,3.2479903191589e-05,8.9923672879295e-05,3.3599998950958
0.016448695387405,0.016452376303703,0.016480390403627,-0.00056288097237402,-0.00058895940579076,-9.8105808663769, , , ,3.3699998855591
0.017054809909299,0.017050591983003,0.017060473981222,-0.00057122191038798,-0.0005811421163624,-9.810553595455,0.99999006788812,-0.00016650235737372,-2.5972129717864e-05,3.3800001144409
0.016454263062688,0.016462924859764,0.016472793681082,-0.00069366674885291,-0.00070446696309191,-9.8106909901941, , , ,3.3900001049042
0.014606928795739,0.014606935877346,0.014639342638365,-0.00066147736039618,-0.00066478230898611,-9.81065832724,0.99998474585146,-2.0939521786412e-07,3.1845361494052e-05,3.4000000953674
0.015477874018814,0.015485344361355,0.015482344487745,-0.00049399608998395,-0.00049900129174003,-9.8105078414826, , , ,3.4100000858307
0.014861191364742,0.01483409405574,0.01485413326012,-0.00047436224246206,-0.00050669144319387,-9.8104850377029,1.0000257467683,9.0487152316275e-05,4.4199759580032e-05,3.4200000762939
0.01615817375427,0.016160975174563,0.016155333847418,-0.00063080431287609,-0.00064752433193289,-9.8106244032625, , , ,3.4300000667572
0.016785903548118,0.016836154613465,0.01677686065027,-0.00080809117394986,-0.00078838817106623,-9.8107927830844,0.99998903543861,-5.7190806742878e-05,4.0066747251441e-07,3.4400000572205
0.016711446742952,0.016725149859715,0.016722656576348,-0.00078729950590124,-0.00077584905561502,-9.8107770635053, , , ,3.4500000476837
0.016685454259442,0.016722544014825,0.016704769381353,-0.00086421255571783,-0.00086661744909305,-9.8108653685028,0.99995712341532,-3.0311088153352e-05,-6.3486309244365e-05,3.460000038147
0.016239386895278,0.016242695312724,0.016248930038037,-0.00086886351345523,-0.00085411089365485,-9.8108610723273, , , ,3.4700000286102
0.015756440622541,0.015745135088188,0.015738306481223,-0.00075662072547979,-0.00074508933683738,-9.8107475370815,0.99994716676987,-6.0240191600377e-05,-1.6153174087917e-05,3.4800000190735
0.016723650664747,0.016736595273683,0.016732447140608,-0.00069380666552422,-0.00068945354076346,-9.8107113337125, , , ,3.4900000095367
0.017439721095164,0.017422101590962,0.017436625974236,-0.00072511779144867,-0.00069798157403864,-9.8107045071284,0.99997205379076,6.4874481434035e-05,7.1033700440426e-05,3.5
0.01828856484459,0.018288074406839,0.018292357582186,-0.00065148397503685,-0.00066088571654453,-9.8106699856497, , , ,3.5099999904633
0.018236954916636,0.018242213537234,0.018222143083504,-0.00063664576042074,-0.0006446679472953,-9.8106315321397,0.99996037580403,1.3071488873861e-05,2.4227541294158e-05,3.5199999809265
0.018001512424395,0.018007672065223,0.018047435809878,-0.00064817934248786,-0.00064498487024168,-9.8106516887123, , , ,3.5299999713898
0.017253814789052,0.017230901186772,0.017244937820594,-0.00083250962312414,-0.00080145756114305,-9.8108075507214,1.0000416002106,-4.4315701330223e-06,-5.4131837120131e-05,3.539999961853
0.017593717594336,0.017574253942982,0.017611903220266,-0.0008343599050198,-0.00084860868912858,-9.8108552782556, , , ,3.5499999523163
0.018260625335616,0.018243341310566,0.018246105614583,-0.00078293468204111,-0.00078138596514227,-9.8107893277706,1.0000737214412,3.0168495313112e-05,3.1997878126692e-05,3.5599999427795
0.018839716522471,0.01882000905103,0.01881969315689,-0.00079003770892514,-0.00076640997545661,-9.810780555355, , , ,3.5699999332428
0.019848385073775,0.019842007197747,0.019873725904572,-0.00058989357116822,-0.00059751631440184,-9.8105879929664,1.0000310941617,-2.297847035906e-05,-9.4006080685737e-05,3.5799999237061
0.020283011329576,0.020277691440322,0.020308992612886,-0.00068254300614267,-0.0006935318319206,-9.8106740908554, , , ,3.5899999141693
0.020142598835632,0.020159828874044,0.020163404005194,-0.00069469950943277,-0.00069500386338263,-9.8106809352772,1.0000178609194,-3.5873151645893e-05,-4.7282562094411e-05,3.5999999046326
0.021119045097119,0.021107625205544,0.021109156336569,-0.00078198379583547,-0.00076744627380251,-9.8107758586328, , , ,3.6099998950958
0.020154244708623,0.02015291099042,0.020183022736735,-0.00089673806137323,-0.00090176209225763,-9.8108969059797,1.0000325671121,2.0846249172795e-05,1.6610184095716e-05,3.6199998855591
0.020462067316841,0.020477395981323,0.020489472910268,-0.00085897543606803,-0.00084709632578918,-9.8108243129146, , , ,3.6300001144409
0.021389907985767,0.0213604624311,0.021394345750915,-0.00076215691290187,-0.00076117868812678,-9.810747009396,0.99994417489728,7.3860755855033e-05,3.5288570995475e-05,3.6400001049042
0.020712954076354,0.020744806141815,0.020725634101433,-0.00077088837046911,-0.00078332580985021,-9.8107695635384, , , ,3.6500000953674
0.021135270265217,0.021098390474231,0.021118975118623,-0.00089440391812975,-0.00089359287423937,-9.8108849789982,1.0000158933796,3.0683596145854e-05,4.2868897627044e-05,3.6600000858307
0.021452867559347,0.021461820240793,0.021459846439591,-0.00097165006801142,-0.00096378472728216,-9.8109675453641, , , ,3.6700000762939
0.023078379139608,0.02307261110399,0.023081314248779,-0.00077187610253766,-0.00078962482631363,-9.8107901408228,0.99999745840594,1.4890837181552e-05,2.2246091962641e-05,3.6800000667572
0.023181705856038,0.023183132634845,0.023160865395056,-0.00058493965611015,-0.00057359192691938,-9.8105826782731, , , ,3.6900000572205
0.021830242774438,0.021844498274029,0.021813157769143,-0.00047354325723366,-0.00048764087793983,-9.8104863522764,1.0000124716391,-2.2758705952353e-05,1.2866693571825e-05,3.7000000476837
0.022231746903639,0.022227143151738,0.022226340208566,-0.00056001787184981,-0.00054198328874131,-9.8105536635464, , , ,3.710000038147
0.022518986279941,0.022528941235066,0.022528382548785,-0.00045511733149031,-0.00044564181822179,-9.8104446216295,1.0000765639481,-1.3034051896258e-05,-4.9253359014913e-05,3.7200000286102
0.022540002091962,0.022531653975975,0.022528841944101,-0.0004338400820194,-0.0004482194445172,-9.8104482930134, , , ,3.7300000190735
0.02414988192173,0.02414663472696,0.024148045396779,-0.00040587728409958,-0.00038990193365156,-9.8104115612985,1.0000161702023,2.9744248783861e-05,1.8446548980048e-05,3.7400000095367
0.023605915483611,0.023644383216742,0.023633451316508,-0.00044603809181164,-0.00043145462665035,-9.8104512207206, , , ,3.75
0.022904071767084,0.022918538739318,0.022914108588672,-0.00057400473903933,-0.00056915529433178,-9.8105774304437,1.0000492338601,5.8192349401537e-05,-4.2112896920458e-05,3.7599999904633
0.023161350472306,0.023150970282494,0.023161631104909,-0.00063155278097201,-0.00063853625725028,-9.8106407767769, , , ,3.7699999809265
0.022556467320164,0.022539129341453,0.022536050653403,-0.0006716006554465,-0.00067613756809572,-9.8106717865724,1.0000091528854,4.2012563995983e-05,-7.5154360410449e-06,3.7799999713898
0.02267338051443,0.022681232898885,0.022663004136731,-0.00070381803360033,-0.00072442622360753,-9.8107242499111, , , ,3.789999961853
0.021043142146898,0.021049174954681,0.021063721277206,-0.00082000822486337,-0.00082312387476148,-9.8108165688299,0.99999890028086,-3.1637092103998e-05,-4.5219343800313e-05,3.7999999523163
0.020313215914042,0.020296174583014,0.02027500464501,-0.00053763092389271,-0.00054477145429362,-9.8105640020952, , , ,3.8099999427795
0.019990401195354,0.019985586110135,0.020024520334567,-0.0005474982977772,-0.00053400693690123,-9.8105439951562,1.0000337977408,-7.9848341281433e-05,2.4828807005375e-05,3.8199999332428
0.019660791121819,0.019664029556154,0.019669251498378,-0.00050424021552971,-0.00048375802035447,-9.8104681305621, , , ,3.8299999237061
0.020746273046522,0.020730254001841,0.020733642426929,-0.0003145604797739,-0.0003053292478744,-9.8103043697039,1.0000181517179,1.3030705276924e-05,2.5466632284233e-05,3.8399999141693
0.019597575682838,0.019622443137014,0.019597434055306,-0.00021853722098227,-0.00022036397825104,-9.8102144990841, , , ,3.8499999046326
0.019445034425346,0.019443194296613,0.019463601222311,-0.00035427744203905,-0.00030594107448352,-9.8103259917219,0.99993973652441,0.00012415843046355,-7.7803306179101e-06,3.8599998950958
0.019757196823133,0.019740574169411,0.019758488588183,-0.00023242739882058,-0.00024629806775834,-9.8102460624963, , , ,3.8699998855591
0.021667163554278,0.021664613405726,0.021647761401494,-0.00020514935083086,-0.00019154036898581,-9.8101998168572,1.0000486445905,2.8842109818665e-05,5.2360428386577e-05,3.8800001144409
0.020919122482786,0.020919692657877,0.020927592768608,-0.00023753501218792,-0.00021429587519861,-9.8102164875286, , , ,3.8900001049042
0.020869786332994,0.020877339384956,0.020898703270527,-0.00019307199366762,-0.00020569336264238,-9.8101939099147,1.0000038485429,-9.247520751162e-06,9.5504087775614e-05,3.9000000953674
0.022374891282346,0.022390690414169,0.022385144568187,-0.00021871626608169,-0.00019436293062582,-9.8102011174525, , , ,3.9100000858307
0.020242307100142,0.02016988446435,0.020192842873049,-0.00019203659241038,-0.00019254633133191,-9.8101926344234,1.0000161789499,-6.8571295097204e-05,-4.0519056901404e-05,3.9200000762939
1.6896715057024,-5.0680449456424,6.8069197104784,0.36566470176396,0.1458175105296,-9.8013318097742, , , ,3.9300000667572
1.6124999907439,-4.8129748455739,6.4673971287112,0.82301215283304,0.35837657722996,-9.7681695023046,0.98638412800359,0.13076729460692,0.099900250078093,3.9400000572205
1.5392102385559,-4.5699404801101,6.1455014983363,1.2415462891183,0.58684528769057,-9.7128389311025, , , ,3.9500000476837
1.4704260381737,-4.3377709214868,5.8411924523085,1.6225933821701,0.82673334238887,-9.6389209603796,0.95093544967475,0.24256554704651,0.19189409550151,3.960000038147
1.4042590080858,-4.1175777272579,5.5518039593955,1.9673359464788,1.0737206345415,-9.5500587207348, , , ,3.9700000286102
1.3418001516174,-3.9075629294034,5.277757595627,2.2777781842778,1.3245426418703,-9.4490821470232,0.90087822994165,0.33633402376101,0.27450837592075,3.9800000190735
1.2812351645075,-3.7089279420782,5.0165974882817,2.5560079132391,1.5764277876143,-9.3386073274444, , , ,3.9900000095367
1.2228739401151,-3.520697200147,4.7680619283237,2.8040065508211,1.8268054567741,-9.2211656216572,0.8416304517373,0.41358789282733,0.34724227998757,4
1.1655835096273,-3.3434936552841,4.5304186040768,3.0242913898952,2.0741352237161,-9.0984160465688, , , ,4.0100002288818
1.1124743455335,-3.1735173886934,4.3063134331025,3.2186571941467,2.3164045299433,-8.9724944859726,0.77764915393006,0.47606523349492,0.41066934900859,4.0199999809265
1.0596757943545,-3.0141959089853,4.0913255475194,3.3894820580509,2.5527217576592,-8.84461069243, , , ,4.0300002098083
1.0101875716573,-2.8618809624445,3.8880664496997,3.5391862401272,2.7824778998566,-8.7157101648535,0.71192529039745,0.52622408043959,0.46521491220673,4.039999961853
0.96194825803713,-2.7183406246035,3.6939111080262,3.6691929854957,3.0044395738572,-8.587326299039, , , ,4.0500001907349
0.91754865154593,-2.5802880635164,3.5110918202376,3.7815488636169,3.2183446851391,-8.4602115831132,0.64678887582622,0.56546383081241,0.51185624010728,4.0599999427795
0.87360412604182,-2.4506998480203,3.3358320874229,3.8782746564288,3.4241014516702,-8.3346774422682, , , ,4.0700001716614
0.8323324897144,-2.3270212523412,3.1699363459314,3.9606329401972,3.6212454999529,-8.2117510532694,0.58354028429824,0.59617876043399,0.55143676513812,4.0799999237061
0.79312348579579,-2.2095005842848,3.0125295383008,4.0303021057554,3.8098728368313,-8.0916449987626, , , ,4.0900001525879
0.75604723706177,-2.0974035836689,2.8632530710794,4.0886606008274,3.9900380129771,-7.9746639857805,0.5233177944956,0.6196353790018,0.58485223461331,4.0999999046326
0.72067466882151,-1.9910303344885,2.7214939619355,4.1368285305324,4.1616903484396,-7.8612782198021, , , ,4.1100001335144
0.68757653487957,-1.8893679415219,2.5873805090339,4.1760767982066,4.3251896692398,-7.7515043317254,0.4667306529407,0.63725806459412,0.61316109957113,4.1199998855591
0.6565769356523,-1.792299431413,2.4605113957987,4.2074126330454,4.4805964047734,-7.6455628895008, , , ,4.1300001144409
0.62487805098661,-1.7022239267721,2.3378462263748,4.2318705721,4.6282741781289,-7.5434202376281,0.41417441541282,0.65024093652153,0.6369703552475,4.1399998664856
0.59594070552064,-1.6154856376458,2.2224703853799,4.2501590853907,4.7684023056927,-7.4452068906604, , , ,4.1500000953674
0.568435284869,-1.5329580347619,2.1130418408163,4.2630893294596,4.9012215167233,-7.3509036329328,0.36532627334324,0.65942778477741,0.65694132471581,4.1599998474121
0.54235104284547,-1.4544690625485,2.0091317442395,4.2714177073029,5.0272048731606,-7.2604238836437, , , ,4.1700000762939
0.51614124595332,-1.3812040243107,1.9091015310365,4.2757925040656,5.146602970247,-7.1736565074557,0.320482500724,0.66595500195569,0.67365997142388,4.1799998283386
0.49172585192776,-1.3112344520289,1.8145556320712,4.276625950513,5.259639789575,-7.0906613149352, , , ,4.1900000572205
0.46875376525715,-1.2444123655512,1.725009686473,4.2744922723919,5.3666178136239,-7.0113457843049,0.27941817251029,0.66994156682379,0.68771441304238,4.1999998092651
0.44603766998171,-1.1817767999906,1.6391162742708,4.2697928136399,5.4677451169751,-6.9356061586757, , , ,4.210000038147
0.42430465671086,-1.1224613611128,1.5573688216754,4.2629338416534,5.5635056136602,-6.8632769746692,0.24195173283276,0.67226665140035,0.69958667730287,4.2199997901917
0.40405143685838,-1.0656139246292,1.4801626736555,4.2542831619185,5.6541698255587,-6.79416455653, , , ,4.2300000190735
0.38516930761959,-1.0112735810887,1.407251984337,4.2442367689458,5.7399491146744,-6.7282560000425,0.20796353092353,0.67333193982907,0.70956961528399,4.2399997711182
0.36569826375737,-0.9611348254122,1.3363651906455,4.2328650289327,5.8209462785334,-6.6655119258452, , , ,4.25
0.34790468477482,-0.91278068601998,1.2697715733286,4.2206201379615,5.8976752041708,-6.6056244708719,0.17698055321804,0.67330083376353,0.71778683744762,4.2600002288818
0.33075148265702,-0.86706023157602,1.2063466960954,4.2073578125772,5.9700733375835,-6.5487676280284, , , ,4.2699999809265
0.31558886243062,-0.82248578148907,1.1472129423198,4.1934951921923,6.0385042554571,-6.4946552206441,0.14900722687503,0.67264336933253,0.72485885650081,4.2800002098083
0.30014208106036,-0.78122055561753,1.0900214261014,4.1789191281858,6.1029270022316,-6.4434630627471, , , ,4.289999961853
0.28362485995428,-0.74378640390618,1.0338830334405,4.1643986721285,6.1642422587983,-6.3943519862031,0.12359300061735,0.67127111800084,0.73086779203583,4.3000001907349
0.27030638407291,-0.70580333710532,0.9829578745406,4.1493624728564,6.2219594276953,-6.34788317969, , , ,4.3099999427795
0.25703159532483,-0.6704089413613,0.93390891701031,4.134486301236,6.2767533020081,-6.3035050003347,0.1007031239725,0.66969376007695,0.73581742808761,4.3200001716614
0.24500539071935,-0.63617714986382,0.88791054078693,4.1196295192714,6.3284840328677,-6.2613762856495, , , ,4.3299999237061
0.23356726962447,-0.60363108810127,0.84421143056527,4.104874639063,6.3775096645343,-6.2212429987004,0.079733641208433,0.66787832658123,0.74001725893396,4.3400001525879
0.22314792544458,-0.57228906318596,0.80320791880484,4.0902390057539,6.4239820665507,-6.1830189953131, , , ,4.3499999046326
0.21079487822377,-0.54488267294154,0.76174445307391,4.0757568388636,6.467783203198,-6.1468151959424,0.061194956956074,0.66585649415107,0.74365956864875,4.3600001335144
0.20224220190956,-0.51576830873026,0.72558163761425,4.0613629083719,6.5092343014097,-6.1124526423625, , , ,4.3699998855591
0.19315869866584,-0.48897788480273,0.69031247204718,4.0474087419439,6.5484002776647,-6.0798027025271,0.044240696691533,0.66374358659508,0.74667570135821,4.3800001144409
0.1846801266643,-0.46346150139127,0.65690353208748,4.0336605113522,6.585640927758,-6.0486814306023, , , ,4.3899998664856
0.17690736848586,-0.43882322684209,0.6254239087403,4.020336193626,6.6208188159353,-6.0191378000986,0.02892520285024,0.66168346006006,0.7492700903014,4.4000000953674
0.16876187052076,-0.41621566364752,0.59478190971397,4.0072877797918,6.654003101679,-5.9911752613721, , , ,4.4099998474121
0.15969849498155,-0.3961425779073,0.56435474033967,3.9944800073571,6.6853597285875,-5.9646440235432,0.015177437996127,0.65957867781021,0.75151699453828,4.4200000762939
0.15286397729299,-0.37511535799214,0.53732550719262,3.9821128747424,6.7149746752366,-5.9395523566427, , , ,4.4299998283386
0.14537906256313,-0.35633684310445,0.51055399256557,3.9702630602398,6.7434622027096,-5.9153085513584,0.0027732910640906,0.65760446318004,0.75337964475883,4.4400000572205
0.13953782174592,-0.3370995055613,0.48639469622328,3.9587568686933,6.7702725745462,-5.8923904130863, , , ,4.4499998092651
0.1324822498472,-0.32031595181648,0.46197021679677,3.9476212280183,6.7955194383601,-5.8707669963905,-0.0085388171890348,0.65571462659808,0.75493096395081,4.460000038147
0.12633926875544,-0.30385177931091,0.43936304563362,3.9368121540445,6.8196360609866,-5.850102502949, , , ,4.4699997901917
0.12036534226485,-0.28832836470517,0.41769319480921,3.9265790477025,6.8425153880011,-5.8303892079632,-0.018459041101284,0.65388929295161,0.75641278401805,4.4800000190735
0.11424346090176,-0.27401040613874,0.39669747974619,3.9166634925447,6.863995910002,-5.8118588822876, , , ,4.4899997711182
0.10942168915633,-0.25946935577883,0.3777422064319,3.9069083764209,6.8842822064307,-5.794332189787,-0.02774277814655,0.65225991181348,0.75749359995219,4.5
0.10377615306213,-0.24663095310592,0.35865370444972,3.8975457515828,6.9033519646059,-5.7778193675971, , , ,4.5100002288818
0.099511621597614,-0.23343451200017,0.34159733524922,3.8885252598567,6.921548635949,-5.7620247999364,-0.03591983287139,0.65054577650824,0.75854833421265,4.5199999809265
0.095742822180365,-0.2205766345878,0.32570842288007,3.8799593802142,6.9390335522632,-5.7467949630634, , , ,4.5300002098083
0.092090910570557,-0.20842891368718,0.31058235888219,3.8718919837693,6.9554027823037,-5.732520757543,-0.04329453804142,0.64912328625832,0.75951346916086,4.539999961853
0.088063264772326,-0.19735932173209,0.29563036536393,3.8637694378138,6.9710267758612,-5.7188716449808, , , ,4.5500001907349
0.083596515657197,-0.18766456795128,0.28070123298407,3.8563912292273,6.9858773347148,-5.7058947631728,-0.049945100367577,0.64770179945867,0.76023882598992,4.5599999427795
0.079918748061673,-0.17775996193162,0.26716498420534,3.8490680066119,6.9999529473898,-5.693516806152, , , ,4.5700001716614
0.077341740191605,-0.16742568378226,0.2552421592448,3.8422630229983,7.0130421239787,-5.6820396839902,-0.05604179612317,0.64633448054447,0.76082507096943,4.5799999237061
0.073771936520064,-0.15878827240144,0.24280257311925,3.835535736658,7.0258686211328,-5.6707250805809, , , ,4.5900001525879
0.070537074822068,-0.15043897173242,0.23109640922279,3.829354412081,7.0374977229362,-5.660542236443,-0.061388564883175,0.64520621658226,0.76149219335994,4.5999999046326
0.068385637089118,-0.14149292784296,0.22090530879204,3.8232315875843,7.0490047541937,-5.6503739559865, , , ,4.6100001335144
0.066605290919983,-0.13278630201295,0.21145308301062,3.817336761512,7.0598278261089,-5.6407708776673,-0.066439442918785,0.64409384142759,0.76201862454242,4.6199998855591
0.064484833509548,-0.12497417571152,0.20212050074569,3.8116844758507,7.0700762007764,-5.6317514373175, , , ,4.6300001144409
0.062006283069186,-0.11794971340264,0.19278897823501,3.8063033588689,7.0792594392716,-5.6236603949739,-0.07087431577928,0.64307344240083,0.76256004441645,4.6399998664856
0.060227743526924,-0.11071732101426,0.18447407464332,3.8010622097491,7.0888106530268,-5.6151919170232, , , ,4.6500000953674
0.05831443699752,-0.10411302963944,0.17633199040003,3.7964756192005,7.0971408429453,-5.6077929135426,-0.074703534567254,0.64233506937195,0.76278271237317,4.6599998474121
0.056040771145253,-0.098259232121814,0.16813316606942,3.7917370642259,7.1058204547439,-5.6001055153092, , , ,4.6700000762939
0.05336861248647,-0.093205085141547,0.1598395460419,3.7873914141865,7.1135526460255,-5.593215777427,-0.078349397442066,0.64134189339009,0.76316704730064,4.6799998283386
0.053484966529346,-0.085739841863048,0.15460389036853,3.7832730715551,7.1208460301628,-5.5867444158665, , , ,4.6900000572205
0.051314775900627,-0.080924686826039,0.14739151566425,3.7791196321418,7.1281710989241,-5.5802352549271,-0.081593564168389,0.64060410582477,0.76353076340108,4.6999998092651
0.049940890470553,-0.075769081163732,0.14119105902444,3.7758106812741,7.1342631021321,-5.5747528322979, , , ,4.710000038147
0.049350810800624,-0.070022097189272,0.13605959197985,3.772098853665,7.1409473020615,-5.5688048319604,-0.084567051092478,0.63987666602887,0.76376747646528,4.7199997901917
0.048372852836734,-0.065034466064255,0.13072731230307,3.7684803107655,7.1471962350077,-5.5632178556986, , , ,4.7300000190735
0.046844743986999,-0.060974667613801,0.12505835913328,3.7650166593176,7.1531224340433,-5.5579436357586,-0.087227403014877,0.63931100193605,0.76409390293176,4.7399997711182
0.044961121537898,-0.057410115413265,0.11933131219468,3.7620593271602,7.1581910654011,-5.5534276733863, , , ,4.75
0.043301590203299,-0.054020235770586,0.11390789408454,3.7595502841489,7.1630603794433,-5.5490296622244,-0.08955898037793,0.63867960235236,0.76429482140114,4.7600002288818
0.042750891181366,-0.049619675677179,0.10983998465964,3.7562124258869,7.1688647541121,-5.5438359571257, , , ,4.7699999809265
0.041294841664583,-0.046445473009972,0.10503385254991,3.7536829492697,7.1729219780791,-5.5402037094188,-0.091770553592214,0.63806800995749,0.76443310205369,4.7800002098083
0.041654219348316,-0.041697058836719,0.10213076753608,3.7510682246795,7.1775695026676,-5.5360478568171, , , ,4.789999961853
0.03939504992891,-0.039827089070309,0.096881200645235,3.7485379058268,7.1819647888224,-5.5321200002908,-0.09365650793496,0.63766366241586,0.76453309516087,4.8000001907349
0.037687721276007,-0.037564150375723,0.092298538152066,3.7465448067181,7.1851495501767,-5.5292656183554, , , ,4.8099999427795
0.037441982645518,-0.034027607683757,0.089384050694543,3.7455183269105,7.1869480687313,-5.5276427702265,-0.09543320407593,0.6372085588206,0.76479723647397,4.8200001716614
0.036617261636784,-0.031290857310774,0.085924023700405,3.7423261414445,7.192099700883,-5.5230255018359, , , ,4.8299999237061
0.035352524988894,-0.029175615066799,0.082154565857162,3.741125186044,7.1941375670337,-5.5211803029482,-0.09694847657867,0.63684852020006,0.76490792267121,4.8400001525879
0.033099415619555,-0.028219032030735,0.077565558540846,3.7385602243417,7.1984027508998,-5.5173881957951, , , ,4.8499999046326
0.030661395244095,-0.027579448600694,0.072921005609378,3.7371282669208,7.200591830712,-5.5154179694527,-0.098485856400559,0.63644160210578,0.76502968872165,4.8600001335144
0.029975196523949,-0.025393447354502,0.070076325663154,3.7346269090322,7.204903129806,-5.5115042571809, , , ,4.8699998855591
0.028817247382556,-0.023758717613548,0.067017028036218,3.7337058678552,7.2066091664168,-5.5099989113835,-0.099678002084051,0.63612956332739,0.76519460491796,4.8800001144409
0.02811258513675,-0.021841106377,0.064391090228864,3.7315782710209,7.2103765440599,-5.5065586631254, , , ,4.8899998664856
0.026963456702912,-0.020326064902743,0.061359588179116,3.7292183234986,7.214053759854,-5.5032546902946,-0.10087376051477,0.63579366455586,0.7652813337295,4.9000000953674
0.026408654945509,-0.018647687725777,0.059152523428768,3.7290849284995,7.2144586130104,-5.5029040560013, , , ,4.9099998474121
0.025258076579499,-0.017460628010929,0.056288966539481,3.7271877750257,7.2174003843853,-5.5002689683211,-0.10202586482947,0.63561057091697,0.76528360173693,4.9200000762939
0.023493696586034,-0.01726468445471,0.053069419813289,3.7261006619973,7.2188111132245,-5.4990178072555, , , ,4.9299998283386
0.022447781573411,-0.0162775835116,0.050518753504832,3.7242913278348,7.2217970746133,-5.4963139691849,-0.10289544263806,0.63536016025618,0.76536542991268,4.9400000572205
0.022455451142675,-0.014266647895021,0.04907027121088,3.7234577370461,7.2227594495444,-5.4954859780514, , , ,4.9499998092651
0.021102842948909,-0.01379920999176,0.046421260318187,3.7233553538649,7.2226623157774,-5.4955690026749,-0.10373791168027,0.63513124102629,0.76540540193687,4.960000038147
0.02141142111842,-0.011660746453237,0.045395643794952,3.7215747301527,7.2256917419574,-5.4928317798187, , , ,4.9699997901917
0.021615204570013,-0.0097732535526355,0.044438680033138,3.7200303600331,7.2280543474352,-5.490711184126,-0.10441282355936,0.63488001596717,0.76543787744723,4.9800000190735
0.021795206905401,-0.0080363697344847,0.043432048473805,3.719835474097,7.227886253248,-5.4908949848732, , , ,4.9899997711182
0.021357085115019,-0.0070987392497121,0.041988332341621,3.7178250620652,7.2306925462187,-5.4883858006738,-0.1051228496801,0.63466451305255,0.7656165802227,5
0.020640685774708,-0.0063232706123595,0.040205529041526,3.7168342609703,7.2323334443135,-5.4868975142551, , , ,5.0100002288818
0.022060043705539,-0.0036228681181381,0.040715110029547,3.7168339195357,7.2323571162278,-5.4869005983418,-0.10585874662121,0.63448315996075,0.76570204375063,5.0199999809265
0.021489578119016,-0.0028690406799353,0.03909279013822,3.716959747666,7.2324647972852,-5.4867611027934, , , ,5.0300002098083
0.020194690419585,-0.0027128618092049,0.036792896790383,3.7151369679166,7.2354786458871,-5.4840338657236,-0.10633988521184,0.63441652078995,0.76564378119067,5.039999961853
0.020318598535444,-0.0015584680893992,0.036207171039341,3.7138201920516,7.2376537556343,-5.4820650551999, , , ,5.0500001907349
0.020131210506997,-0.00071790629230881,0.035266370476174,3.7137846794404,7.2376247998515,-5.4821099820093,-0.1069214914296,0.63429007455639,0.76569499832466,5.0599999427795
0.019167210176468,-0.00058876004003749,0.033476552219454,3.7125591437809,7.2397983083922,-5.4801358582739, , , ,5.0700001716614
0.018638399457005,-0.00034746272138,0.032418388156876,3.7118374356028,7.2408785869504,-5.4791343033916,-0.10741471985953,0.63410989211694,0.76570899507849,5.0799999237061
0.016744588543084,-0.00096272130308905,0.029640049277538,3.711965549395,7.2410112605365,-5.4790307345271, , , ,5.0900001525879
0.016738601330063,-9.9356294977998e-05,0.028984293645843,3.7120372774862,7.2410915694935,-5.4789534739537,-0.10759706021805,0.63402602592285,0.76571185089422,5.0999999046326
0.017128223026091,0.0011575060705446,0.028665124964322,3.7107161081926,7.2431643443974,-5.4770636525333, , , ,5.1100001335144
0.016879335988625,0.0016298385394128,0.027932163409939,3.7097849368138,7.2446202848915,-5.4757636310168,-0.10814353536249,0.63401848470023,0.76582276828839,5.1199998855591
0.016189023997186,0.0017181172744292,0.026758941017944,3.7097932827163,7.2446443975612,-5.4757483420045, , , ,5.1300001144409
0.0165146927591,0.0028814760566486,0.026454514066642,3.7096286841103,7.2444777129844,-5.4758974806443,-0.1084348398107,0.63392254510069,0.76587370613355,5.1399998664856
0.015495865816972,0.0023740797979568,0.0250062132837,3.7082826642076,7.2465542824071,-5.4740372627072, , , ,5.1500000953674
0.014452077665289,0.0022050744715263,0.023374311021935,3.7076547262036,7.2472219256532,-5.4734480886576,-0.10870425194732,0.63386643170464,0.7658891086632,5.1599998474121
0.012875113023113,0.0012696705859562,0.021286704173098,3.707681291741,7.2472554447628,-5.4734152649077, , , ,5.1700000762939
0.013693954652635,0.0021400737237319,0.02211590623865,3.7076681401953,7.2472316155906,-5.4734315405689,-0.10901494960082,0.63370991278201,0.76587538396905,5.1799998283386
0.012126534384094,0.0011120101329227,0.020068741911913,3.707608616422,7.2471867454913,-5.4734785419055, , , ,5.1900000572205
0.012320535133446,0.0020630528794086,0.019768468270939,3.7075475629181,7.2471006993739,-5.4735634040827,-0.10932335552138,0.63348897558524,0.76591963078751,5.1999998092651
0.011616950914411,0.0021356658560155,0.018504271312357,3.7061309900385,7.2491376366512,-5.4717357098931, , , ,5.210000038147
0.011506252261499,0.0020014249763584,0.018395625126633,3.7051572279884,7.2502478971883,-5.470741017739,-0.10953054858936,0.63359405647591,0.7658220883658,5.2199997901917
0.011452406723218,0.0032341423740478,0.017427157488557,3.7053844700648,7.2504812523599,-5.4705306671791, , , ,5.2300000190735
0.010635124861645,0.0028738489226763,0.016206357738132,3.705388201509,7.2504693952198,-5.470514038695,-0.10980055481959,0.63345302936131,0.76597982141749,5.2399997711182
0.011114673064427,0.0033141597154238,0.016751795495755,3.7054976179757,7.2505915652589,-5.470425746722, , , ,5.25
0.011247766104453,0.0034853209086453,0.016895413432254,3.7054276223598,7.2505114297532,-5.470491461137,-0.10982463515573,0.63354467546075,0.76587345062324,5.2600002288818
0.01035236032175,0.0035887953175815,0.015173808484415,3.7052997400792,7.2504005196033,-5.4705926846114, , , ,5.2699999809265
0.0088135099899409,0.0026692159273619,0.013240193948918,3.7054096754687,7.2505115943947,-5.4704724552823,-0.11012867778113,0.63344153347581,0.76598511039958,5.2800002098083
0.0074118902151418,0.0006917383552822,0.012318919457776,3.7053865358352,7.250483381151,-5.4705344761312, , , ,5.289999961853
0.0074006290716152,0.0019076482366885,0.011327201803182,3.70533427678,7.2504403277838,-5.4705464788575,-0.11019436750455,0.63344221622227,0.76593770057537,5.3000001907349
0.0066615801085731,0.0018718573632872,0.010098735573525,3.7040326166335,7.2525709343093,-5.4686250326566, , , ,5.3099999427795
0.0079709974866903,0.0025329860950046,0.011948790405471,3.7029450436162,7.2539599290378,-5.467347582506,-0.110180764021,0.6333938436153,0.76597183981039,5.3200001716614
0.010622673439265,0.005850529131931,0.014076148481942,3.7028680069576,7.2538669139006,-5.4674744734595, , , ,5.3299999237061
0.010347106247287,0.0064507364065269,0.013099662836252,3.7028246928972,7.2538301518458,-5.4675006929681,-0.11042565522565,0.63334374871665,0.76599402526404,5.3400001525879
0.010018940411099,0.0061171712202948,0.012845636015452,3.70288117241,7.2538831057746,-5.4674403375897, , , ,5.3499999046326
0.011008096588326,0.0071187276882465,0.013821946492516,3.7029022045735,7.2539469139939,-5.4674127755052,-0.11056545597316,0.63338034939722,0.76606749219141,5.3600001335144
0.010475085586696,0.006567389218126,0.01328150675829,3.7028966125465,7.253903871942,-5.4674387443277, , , ,5.3699998855591
0.010460805981426,0.0065862687074723,0.013273037503841,3.7029320003533,7.2539335661236,-5.4674067569898,-0.11063793153074,0.6333697640282,0.76596057273213,5.3800001144409
0.0098537863083716,0.0059607051551448,0.012652323492321,3.7029339315285,7.2539379255257,-5.4674240966766, , , ,5.3899998664856
0.01066495677564,0.0067531745426695,0.013474127044029,3.7028433864164,7.2538474820683,-5.4674966841019,-0.11069472897402,0.63335079739455,0.76598479370792,5.4000000953674
0.010921319329388,0.0069879029209841,0.013724127702962,3.7028222645309,7.2538346211741,-5.4674965734129, , , ,5.4099998474121
0.011420761529139,0.0075590576254013,0.014249223008724,3.7030050694967,7.2540074166395,-5.4673361225407,-0.11073675994878,0.63322022597238,0.76602083366352,5.4200000762939
0.011503154402761,0.007642790425086,0.01438469153061,3.7029387767876,7.2539259216708,-5.4673982823707, , , ,5.4299998283386
0.011852427928801,0.01181149530135,0.011870758060079,3.7029398686586,7.2539352952399,-5.4673938726977,-0.110757122672,0.63324668464234,0.7659310332154,5.4400000572205
0.013125113393718,0.013074423868497,0.013157907994854,3.7028683304571,7.2538899077964,-5.4674643740724, , , ,5.4499998092651
0.012906772239156,0.01287545329967,0.012901537668544,3.70298657083,7.253971806997,-5.46734653988,-0.11083293032613,0.63315257160388,0.76598277351147,5.460000038147
0.010963035145355,0.010976252558038,0.010965105446419,3.701578500414,7.2559997426244,-5.4655435687253, , , ,5.4699997901917
0.011903510043613,0.011884748632681,0.011895484206923,3.701411208984,7.2565292759712,-5.4650607015447,-0.11086149766371,0.63327151173489,0.76599134810189,5.4800000190735
0.0127691640366,0.012709936081058,0.012786018455564,3.7013571630235,7.2564504703049,-5.4651362651335, , , ,5.4899997711182
0.01372515087208,0.013693000147781,0.013789799983503,3.7013636646347,7.2565040340663,-5.4651082686906,-0.11083275599399,0.63324923712871,0.76596803325874,5.5
0.013982193495732,0.0139234079504,0.013972211218573,3.701455954228,7.2565782960027,-5.465014655704, , , ,5.5100002288818
0.013199292939701,0.013199310066642,0.01324972648502,3.7014917891952,7.2566107290041,-5.4649801323264,-0.11088562030703,0.63324032784214,0.76600793591329,5.5199999809265
0.015117038816804,0.012348280261424,0.017103202786047,3.7015034232175,7.2566161263907,-5.464959916672, , , ,5.5300002098083
0.013900276429048,0.013858808536063,0.013899867634334,3.7014027540726,7.2565320264481,-5.4650640265009,-0.11084484902615,0.63313933456723,0.76604502526706,5.539999961853
0.013079184611569,0.013072309322639,0.013035664291636,3.7013733674341,7.2564985510692,-5.465079104961, , , ,5.5500001907349
0.013517587498444,0.013520577753788,0.01352693445633,3.7012486589491,7.2563777434653,-5.4652297582401,-0.11091678932559,0.63318827707938,0.76602201732176,5.5599999427795
0.014356929404169,0.014359667643761,0.014367933415943,3.7012161144155,7.2563430359118,-5.4652541854847, , , ,5.5700001716614
0.014271615999939,0.014287537896511,0.014289249590143,3.7012257189438,7.2563289072389,-5.4652557419912,-0.11089426526147,0.63328586174201,0.76597882734915,5.5799999237061
0.01297278422989,0.012974258535882,0.012968497615504,3.7012266138125,7.2563656151589,-5.4652085147046, , , ,5.5900001525879
0.013328466292594,0.013347834665297,0.01335687843139,3.7011565377714,7.2562816372039,-5.4653030771511,-0.11093351086435,0.63327224361275,0.7660245074364,5.5999999046326
0.013168771686948,0.01319846115194,0.013171592388314,3.7010652236056,7.2561772663247,-5.4654029698215, , , ,5.6100001335144
0.012567615563429,0.01253584729515,0.01254154855242,3.7011206179524,7.2562474469669,-5.4653367636393,-0.11085500885239,0.63331375785131,0.76597578816782,5.6199998855591
0.012586459858084,0.01261612884286,0.01261246764642,3.7011151352758,7.2562333981108,-5.4653531785808, , , ,5.6300001144409
0.013210165247307,0.013198869280051,0.013243349707399,3.7012197948603,7.2563229328127,-5.465243507496,-0.11090903585459,0.63328518265665,0.76604236917839,5.6399998664856
0.013080019950959,0.013055413604067,0.013070563671807,3.7010610626839,7.2561891516716,-5.4653977631375, , , ,5.6500000953674
0.013068323526718,0.013051306098522,0.01308318933662,3.7009954819347,7.2561441886331,-5.4654647665252,-0.11081808859428,0.63319246309972,0.76588438329495,5.6599998474121
0.013253216148187,0.013243708192054,0.013263492638021,3.7010983929721,7.2562129318721,-5.465352500097, , , ,5.6700000762939
0.01386828515726,0.01385413264026,0.013848991106771,3.7010637116959,7.2561677807869,-5.4653866112457,-0.11086691410847,0.63328474266426,0.76605986339777,5.6799998283386
0.014071695955493,0.014045469716346,0.014053062814137,3.7010322354217,7.2561613750977,-5.4654332243162, , , ,5.6900000572205
0.014881443741729,0.01488558295186,0.014898144000617,3.7012066843434,7.2563188983141,-5.4652728142733,-0.11093341268099,0.6332336455676,0.76602337284913,5.6999998092651
0.014647392347603,0.014648581153698,0.014620269985797,3.701099757856,7.2562253002424,-5.465353480186, , , ,5.710000038147
0.014536222956779,0.014532099468953,0.014536668504327,3.7011405235652,7.256248371224,-5.4653274985349,-0.11090241354358,0.63329992024888,0.76600713162024,5.7199997901917
0.015000587563841,0.015007637523596,0.014999498923294,3.7011682386503,7.2562906763002,-5.4653075513173, , , ,5.7300000190735
0.015468397510213,0.015463200603544,0.01545894905328,3.7011370935951,7.2562489656072,-5.465311584831,-0.11082194732293,0.63314719090847,0.76599955349282,5.7399997711182
0.015599194573914,0.015583182071863,0.015582369077059,3.7011456367975,7.256253295573,-5.46531865978, , , ,5.75
0.014427053549535,0.014441413127148,0.0144309820667,3.7012642706064,7.2563641580891,-5.4652133547511,-0.1109132062648,0.63313712920011,0.76601076304116,5.7600002288818
0.014728376913788,0.014760282338884,0.014762061127287,3.7012670146899,7.2563927820068,-5.4651963776633, , , ,5.7699999809265
0.013014779102096,0.013046109506019,0.013006501946166,3.701311846188,7.2564297777403,-5.4651565905438,-0.11090226504798,0.63323480712032,0.76597481780335,5.7800002098083
0.013982879385613,0.013990828120227,0.013984907326336,3.7013487699412,7.2564469191666,-5.4651151959329, , , ,5.789999961853
0.014881718288868,0.014887634653802,0.014867838619385,3.7013180258045,7.2564427272001,-5.4651512492606,-0.11097713852233,0.63323822766695,0.76596813332377,5.8000001907349
0.014609603827532,0.014614153600355,0.014607454306527,3.7014491541196,7.2565658527432,-5.4650234047127, , , ,5.8099999427795
0.014053247996365,0.014028822727349,0.014069436625483,3.7015701404027,7.2566814534747,-5.4649007196536,-0.11082820144303,0.63319417396977,0.76606565804143,5.8200001716614
0.012527038857613,0.012530502771348,0.012527074910194,3.7015681621891,7.2567018774141,-5.464862531519, , , ,5.8299999237061
0.011049488556705,0.011062241199857,0.011072862599623,3.7016126091835,7.2567287078433,-5.4648786111674,-0.11083868320782,0.63321475171141,0.76602694346526,5.8400001525879
0.01145330912805,0.011457106933681,0.011446934386979,3.701626879418,7.2567552476968,-5.4648520428113, , , ,5.8499999046326
0.010411801881695,0.010415792459362,0.010409515700396,3.7016948662614,7.2567907960337,-5.464798784143,-0.11075350911905,0.63320053008869,0.76602105935625,5.8600001335144
0.0093786088023665,0.0093531273547826,0.0093602545270585,3.701640916079,7.2567461644717,-5.4648258580262, , , ,5.8699998855591
0.0094809376432817,0.0094744068749511,0.0095081940852975,3.7017319393159,7.2568379359942,-5.4647474898953,-0.11088778065858,0.6331499429351,0.76601039823259,5.8800001144409
0.0094294067767604,0.0094093394529903,0.0094218316695546,3.7017421639898,7.256839078331,-5.4647217770383, , , ,5.8899998664856
0.010154642861204,0.010140000920162,0.010149708758705,3.7018834079384,7.2570107672529,-5.4645786327411,-0.11098387731891,0.63315566472537,0.76594842008975,5.9000000953674
0.0088501567921916,0.0088508583770365,0.0088621301085503,3.701951485736,7.2570552265012,-5.4645267445294, , , ,5.9099998474121
0.0093374408498065,0.0093130972408468,0.009333371746776,3.7020496014582,7.2571822084762,-5.4644125760322,-0.11088374708396,0.63322539932078,0.76613069803106,5.9200000762939
0.009255399111014,0.0093122227197059,0.0092582624299579,3.7021025834916,7.2572307495345,-5.4643397741622, , , ,5.9299998283386
0.0099209697054871,0.0099597629325814,0.0099204658758454,3.7022928892121,7.2574023772265,-5.4641715012022,-0.1108887309946,0.63319590942057,0.7660297187093,5.9400000572205
0.0098229994839452,0.0098189678752214,0.009802380776445,3.7022095068191,7.2573362587352,-5.4642277141189, , , ,5.9499998092651
0.0098144411060002,0.0098427933461914,0.0098425192576404,3.7020597258073,7.2571635153606,-5.4644145494165,-0.11091738496376,0.63331641476976,0.76605148683287,5.960000038147
0.0089197395238647,0.0089068542167374,0.0089005547216408,3.7020349542893,7.2571427316662,-5.4644413492811, , , ,5.9699997901917
0.0080695421883477,0.0080719360164671,0.0080551465349945,3.701970983971,7.2570547613907,-5.4645005854672,-0.11076002495188,0.63316626260528,0.76602786441331,5.9800000190735
0.0074173310098457,0.0074200389109442,0.0073897497161295,3.7020343526371,7.2571727654852,-5.4644122892006, , , ,5.9899997711182
0.0084438496477208,0.008441029129966,0.0084522287655259,3.7019280869874,7.2570642243658,-5.4645088565426,-0.11083107462461,0.63314587259063,0.76604552704096,6
0.007364112070029,0.0073908451400518,0.0073483488176413,3.701860305817,7.2570069410693,-5.4646022711001, , , ,6.0100002288818
0.0071484165484683,0.0071488348486425,0.0071779435144819,3.7019053369257,7.2570248698464,-5.4645709968305,-0.11087529127543,0.63315418458905,0.76596261949638,6.0199999809265
0.0086242915596042,0.0086190242366487,0.0085988847907087,3.7018380446292,7.256946325441,-5.4646283443985, , , ,6.0300002098083
0.0088367938599543,0.0088289111326073,0.00884018335987,3.7018643252082,7.2569626388368,-5.4646035219964,-0.11090361457755,0.6332950907874,0.7659981500419,6.039999961853
0.00828972733534,0.008327955985398,0.0082842312405471,3.7018989130996,7.257020612324,-5.4645442888822, , , ,6.0500001907349
0.0087807147227583,0.0087733184850278,0.0087531960732927,3.7017879466073,7.256907514671,-5.4647005922691,-0.1108472385612,0.63320898740217,0.76593117737042,6.0599999427795
0.0094626100542058,0.0094772789228161,0.0094857651822215,3.7017684771392,7.2568759574089,-5.4647102810464, , , ,6.0700001716614
0.0096438224976893,0.00965493461775,0.0096825181330352,3.7017929717695,7.2568991062971,-5.4646859836552,-0.11087178934876,0.63317660706691,0.76599663994436,6.0799999237061
0.01021855464843,0.010227175683135,0.010235009939239,3.7017528409555,7.2568767216345,-5.4647260165429, , , ,6.0900001525879
0.010290017599568,0.010295362483404,0.010294656890941,3.7016646251128,7.2567732698787,-5.4648067510945,-0.11078152490624,0.63320662470255,0.76592092896305,6.0999999046326
0.010740540153529,0.010757183922398,0.010764312150879,3.7017123272606,7.2568148540316,-5.4647684974497, , , ,6.1100001335144
0.011136075263602,0.011140337158285,0.011160014387542,3.7017997193025,7.2569191528669,-5.4646655293358,-0.11083961817627,0.63317311857348,0.76596858442065,6.1199998855591
0.011825629038952,0.01182702450364,0.011836765692384,3.7017288429588,7.256808030252,-5.4647526358125, , , ,6.1300001144409
0.012141173353779,0.012127413701891,0.012142446996934,3.7018488844891,7.256953087684,-5.4646354941014,-0.11082414126225,0.63314992888255,0.7659559521075,6.1399998664856
0.010959129264563,0.01099209127899,0.010950723513177,3.7017928532886,7.2569209127802,-5.464652532726, , , ,6.1500000953674
0.011618864275971,0.011611528333896,0.011596569467557,3.7018657382066,7.2569931330798,-5.4645902416942,-0.11085849587464,0.63333187845871,0.76607002193701,6.1599998474121
0.011888789628822,0.011904097331525,0.011892083785294,3.7018216846555,7.2569285574954,-5.464638155936, , , ,6.1700000762939
0.010474866362866,0.010494238492639,0.01049836960189,3.7017655704901,7.2568971568623,-5.4646779252373,-0.11080911200878,0.63332629275078,0.76606532674757,6.1799998283386
0.010296612943431,0.010317332663238,0.01028708052762,3.701858480113,7.2569736067035,-5.4646080736137, , , ,6.1900000572205
0.010963756386314,0.010956371737306,0.010950118541427,3.701775233584,7.256866390732,-5.4646844531624,-0.11082312838267,0.63324577820463,0.76600942617233,6.1999998092651
0.010567132466182,0.010558500315038,0.010541259189272,3.7017878363348,7.2569103230992,-5.4646904898121, , , ,6.210000038147
0.011622560501004,0.011615012935341,0.011624763144334,3.7018156437731,7.2569465760498,-5.4646178166506,-0.1108489046454,0.63325682441797,0.76598742998001,6.2199997901917
0.011279358281648,0.011289606455391,0.011272266748926,3.701855928964,7.2569711870939,-5.4646133707801, , , ,6.2300000190735
0.010120830783123,0.010150291082083,0.010119736189115,3.7017272204698,7.2568677695742,-5.4647272608139,-0.11089896580692,0.63316176745092,0.76590868479238,6.2399997711182
0.010557711131173,0.010571914166591,0.010574365837158,3.7016956619943,7.2568050797184,-5.4647733148369, , , ,6.25
0.010944591164436,0.010929781888177,0.010932202648769,3.7016719061101,7.2567990650878,-5.4647756664769,-0.110952968709,0.63330589804821,0.76595581731423,6.2600002288818
0.010471390928076,0.010447028859914,0.010457945959533,3.7017539954173,7.2568781754943,-5.4647150369986, , , ,6.2699999809265
0.010770364127995,0.010787878735916,0.010754786492079,3.7015888437981,7.2567032074089,-5.4648607706624,-0.11083719488266,0.63321329787692,0.76591967606404,6.2800002098083
0.010250392011912,0.01023489527158,0.010232717921977,3.7014860624005,7.2566091935678,-5.4650009414102, , , ,6.289999961853
0.010199412902399,0.010170941847655,0.010177534461638,3.7014478046075,7.2565701488377,-5.4650118174375,-0.11074783589161,0.63326642040369,0.76600901841997,6.3000001907349
0.008135735762357,0.0081626405797576,0.0081620090404885,3.7014621141319,7.2565704999729,-5.4649936169266, , , ,6.3099999427795
0.0083985739186533,0.0083766037068461,0.008399904648414,3.7014936375141,7.2566149571462,-5.464948011058,-0.11088480362828,0.63313453345622,0.76591776340055,6.3200001716614
0.0084188545080375,0.008417764789298,0.0084182100544639,3.701420845669,7.2565099676526,-5.4650419180908, , , ,6.3299999237061
0.0083564111285716,0.0083625658196749,0.0083513853424685,3.7014070270125,7.2565261380428,-5.4650630383927,-0.11087711714414,0.63328830431427,0.76599908329338,6.3400001525879
0.0084166289393487,0.0084012625219605,0.0084211813004927,3.7013440134823,7.2564718477955,-5.4651099181477, , , ,6.3499999046326
0.0074530239027983,0.007410331363517,0.0074504847710345,3.7012853186528,7.2563996600131,-5.46516727232,-0.11079624271153,0.63317905062162,0.76605968542243,6.3600001335144
0.0065850092840372,0.0066115976858745,0.0066144708977137,3.7013626708029,7.2564875054871,-5.4650976543558, , , ,6.3699998855591
0.0081148743413229,0.0081396650480654,0.0081174532014454,3.7014606829728,7.2565757925535,-5.4650009616016,-0.11088856740939,0.6331723443425,0.76597324653805,6.3800001144409
0.0076953574509337,0.0076934206941428,0.0076864436829455,3.7015853785551,7.2567006020305,-5.4648683081472, , , ,6.3899998664856
0.0076045328688714,0.0076301131328784,0.007607634525963,3.7016311038886,7.2567378922234,-5.464840970347,-0.11080888280991,0.6331720706203,0.76603845918962,6.4000000953674
0.0073956514128425,0.0073994851517024,0.0073817762956897,3.7016763176063,7.2567701187184,-5.4647896542126, , , ,6.4099998474121
0.0084529828952506,0.008459585778872,0.0084523543383866,3.7016232372915,7.256754642066,-5.4648416182676,-0.11086206173557,0.63321560496924,0.76596595027905,6.4200000762939
0.008217126932985,0.0082101093378704,0.0082416514157333,3.7016658028967,7.2567759805158,-5.4648059991343, , , ,6.4299998283386
0.0084824893437263,0.0084772446390331,0.0084846912681132,3.7015758248134,7.2566842682567,-5.4648942826336,-0.1109413747174,0.63313588558839,0.76593832978489,6.4400000572205
0.0068454514440769,0.0068419459683936,0.0068236455775688,3.7015394676836,7.2566603618818,-5.4649203212825, , , ,6.4499998092651
0.0061466373342515,0.0061186784626309,0.0061001112643514,3.7016315202012,7.2567407536101,-5.4648321625814,-0.11084639151485,0.6332552746722,0.76604984563171,6.460000038147
0.00712615061024,0.0071147907621964,0.0071402057616871,3.7015151404874,7.2566005441079,-5.4649759663249, , , ,6.4699997901917
0.0062283764136804,0.0062109566240615,0.0062276689468365,3.7014340324801,7.2565659481912,-5.4650142131758,-0.11086209000024,0.63325010492799,0.76598530800356,6.4800000190735
0.0064292792074708,0.0064256918483188,0.0064035935303654,3.70153332849,7.2566434341291,-5.4649170219754, , , ,6.4899997711182
0.0073652494259716,0.0073744845083547,0.0073823073096993,3.7015349670087,7.2566413769986,-5.464949928988,-0.1107759895516,0.6332418751502,0.7659806759927,6.5
0.0066106926043763,0.0065933406060761,0.0065906748882839,3.7014506171738,7.2565699019013,-5.4650151767761, , , ,6.5100002288818
0.0059470101050367,0.0059439673541995,0.0059406971717825,3.7014987577525,7.2566142892737,-5.4649698208098,-0.11077420390456,0.633182471398,0.76596352757669,6.5199999809265
0.0055043472046636,0.0055324053389442,0.0054896242811855,3.701552576943,7.2566580851119,-5.4649243634773, , , ,6.5300002098083
0.0054378852746511,0.0054781444697064,0.0054553176864715,3.7016006173422,7.256723061618,-5.4648669184464,-0.11087327730655,0.6331806225353,0.76597738474675,6.539999961853
0.0053503392008236,0.0053398083585829,0.0053564729322791,3.7015367853047,7.2566466446611,-5.4649448324721, , , ,6.5500001907349
0.0064309120317739,0.0064301348652438,0.0064524766703994,3.7015941433702,7.2567007396745,-5.4648786965549,-0.11088864156937,0.63323541286902,0.76594289962284,6.5599999427795
0.0073524795551265,0.0073475690009177,0.0073463256188286,3.701566896709,7.2566966335095,-5.4648922041439, , , ,6.5700001716614
0.007934875075631,0.0079488457980586,0.0079393960491403,3.7017011762437,7.2568164366912,-5.4647443620615,-0.11091990775773,0.63318841900121,0.76596499006552,6.5799999237061
0.0086374565563234,0.0086886637713874,0.0086650413503381,3.7017449149704,7.2568878772401,-5.4647210144728, , , ,6.5900001525879
0.008321791067619,0.0083318552938556,0.0083119148878753,3.7017021181325,7.2568031482061,-5.4647817945631,-0.11095267018091,0.63318651338903,0.76602463023622,6.5999999046326
0.0069212915657582,0.0068934199984747,0.0069200365431073,3.7016436991108,7.2567587699216,-5.4648275330772, , , ,6.6100001335144
0.0076429484907127,0.0076457804781252,0.0076143301336461,3.7016639938204,7.2567908430692,-5.4647827672821,-0.11092336950129,0.63325371628188,0.76596172933582,6.6199998855591
0.0078267899617035,0.0078222945005004,0.007820702216812,3.7017199445649,7.2568598756402,-5.4647152530245, , , ,6.6300001144409
0.0087402715151401,0.0087472169613577,0.0087410657257897,3.7016621484172,7.2567754444569,-5.4648188749564,-0.11093266794751,0.63316629718815,0.76599756881285,6.6399998664856
0.0068033318842716,0.0067770982313168,0.0067885493754488,3.7018047698525,7.2569245475601,-5.4646463456228, , , ,6.6500000953674
0.0082696398130568,0.0082712301873563,0.0082703457705662,3.7017529239755,7.2568502396197,-5.4646869169022,-0.11089375084675,0.63324432948726,0.76592896825865,6.6599998474121
0.0078248025888433,0.0078244511466544,0.0078232733297798,3.7016914916901,7.2568139163244,-5.4647626330966, , , ,6.6700000762939
0.0081020511832036,0.0081073333197963,0.0080648478675285,3.7019028737691,7.256996066834,-5.4645608201881,-0.11089784345254,0.63324308903677,0.76600689094221,6.6799998283386
0.0066248927472189,0.0066199372372539,0.0066272310001646,3.7019034139707,7.2570140700772,-5.4645394630223, , , ,6.6900000572205
0.0071511730551324,0.0071700297579812,0.0071472821884134,3.7019122635486,7.2570356463777,-5.4645512456403,-0.1109269785767,0.63323213687638,0.76593683125455,6.6999998092651
0.006822458193984,0.0068153677472586,0.0068089833273241,3.7020595640681,7.2571595556875,-5.4644088018671, , , ,6.710000038147
0.006519161596888,0.0064950203726675,0.0064723688045411,3.7020219954791,7.2571402730748,-5.4644486261971,-0.1107983252351,0.63325488002945,0.76586341057256,6.7199997901917
0.0063513874437657,0.0063536662484611,0.0063590623088803,3.7022546437406,7.2573335878505,-5.4642167772767, , , ,6.7300000190735
0.0062026689152541,0.0062175862302448,0.006183663246336,3.7020552779751,7.2571507440408,-5.464444027532,-0.11085296147549,0.63313350291146,0.76607395314576,6.7399997711182
0.0055277853507166,0.0055288874970466,0.0055450305040404,3.7019660009808,7.2570626590358,-5.4644933874711, , , ,6.75
0.0065280044498608,0.0065539850378239,0.006489488061409,3.7020195798317,7.2571500685675,-5.4644670846732,-0.11083352860201,0.63320349823328,0.76605035700984,6.7600002288818
0.005813314686352,0.0058115407645296,0.0058048668645426,3.7021156327329,7.257202610128,-5.4643666770564, , , ,6.7699999809265
0.0061941373712131,0.0061662142625764,0.0061477951720776,3.7020802949998,7.2572017686987,-5.4643920268437,-0.1109949920635,0.63324917131341,0.76601506951204,6.7800002098083
0.0053525324477946,0.0053806493444052,0.0053739113287574,3.7021366651729,7.2572532935594,-5.4643334348463, , , ,6.789999961853
0.004812452159256,0.0047991575087126,0.0048095911690473,3.7019316893573,7.2570615622676,-5.4645159369059,-0.11091772542237,0.63329163479899,0.76602893831337,6.8000001907349
0.0050152137275726,0.0050541455266018,0.0050323095963416,3.7018906177756,7.2570017408035,-5.4645731949217, , , ,6.8099999427795
0.0047110739658973,0.0047212622042304,0.004726654466897,3.7021083275478,7.2572187725787,-5.4643709322122,-0.11083808570545,0.63320008941327,0.76593055723183,6.8200001716614
0.0034082172856463,0.0034452295765351,0.0034252877230432,3.7021042000043,7.257210043066,-5.4643919735346, , , ,6.8299999237061
0.0027642823284851,0.0027843332442569,0.0027555689005607,3.7021909391643,7.2572803509288,-5.4642824133524,-0.1108763009898,0.6332452559865,0.76597163548577,6.8400001525879
0.0034985316928734,0.0034917978025386,0.0034872238600171,3.7020829941563,7.2571661820496,-5.4644015752546, , , ,6.8499999046326
0.0030444403071075,0.0030311513015989,0.0030406520668585,3.7020707445619,7.2571764075774,-5.4644130634922,-0.11082772499366,0.63327626764349,0.76594515795235,6.8600001335144
0.0018935900782557,0.0018851234013318,0.0018740610764876,3.7020338685442,7.2571602019645,-5.4644272580906, , , ,6.8699998855591
0.00067695911617671,0.00068452150938164,0.00071712237368658,3.7020798825039,7.2572124216189,-5.4644024027266,-0.11090039537929,0.63319855110321,0.76598290768557,6.8800001144409
0.0004279667864998,0.00042773095574058,0.0004182183190238,3.7020441401198,7.2571505174273,-5.4644333586429, , , ,6.8899998664856
0.00081279276167121,0.00082416036314638,0.00082491974091099,3.7021507779212,7.2572628498771,-5.4643052392228,-0.11095254439058,0.6332738337045,0.76594866836682,6.9000000953674
0.00036554596760689,0.00040345766214483,0.000386368017945,3.7023003961013,7.2573975326278,-5.464170237048, , , ,6.9099998474121
-0.00010799100822014,-0.00011522024557147,-0.00011609394097472,3.7023273820618,7.2574544319269,-5.464132746551,-0.11089950409429,0.63318448963931,0.76598711845885,6.9200000762939
0.000424897348696,0.00040150249369081,0.00037503570812452,3.7022611853303,7.257370971023,-5.464202341233, , , ,6.9299998283386
0.001524695827997,0.0015067310519312,0.0015051577263506,3.7023143740504,7.2574239452094,-5.4641415122904,-0.11087175050067,0.63321269392823,0.76601202911272,6.9400000572205
0.002214121901493,0.0022051403825114,0.0022090794202757,3.7025820874158,7.2577101830844,-5.4638799504725, , , ,6.9499998092651
0.0017852107015668,0.0017886932226374,0.0017957910031436,3.7025987483664,7.2576854150178,-5.4638819818006,-0.11083180702782,0.63328491817049,0.76600885805968,6.960000038147
0.0027445658521749,0.0027909175747815,0.0027437879179843,3.7027287946831,7.2578251095176,-5.463752404675, , , ,6.9699997901917
0.0028906527665703,0.0028756528501377,0.0028983222559909,3.7026534834238,7.2577679353002,-5.4637989557722,-0.11088429697975,0.63336473547862,0.76601099328689,6.9800000190735
0.0028930717842446,0.0029390017556501,0.0029212910783202,3.7024402438929,7.257561357883,-5.4640317794382, , , ,6.9899997711182
0.0026464524734281,0.0026309075674623,0.0026509893595885,3.7024499418566,7.257564840454,-5.4640416953055,-0.11081284979899,0.63330128336537,0.76607922050698,7
0.0027844918630983,0.0027581312045446,0.0027506232823131,3.7025210610966,7.2576249874556,-5.4639387100797, , , ,7.0100002288818
0.0037969351989749,0.0038204890529466,0.0038200427040226,3.7023345760069,7.2574537629921,-5.4641418997967,-0.11091876844863,0.63327154837619,0.76597637226487,7.0199999809265
0.0038233970818814,0.0038107968773234,0.0037890561038184,3.7024069570553,7.2575381911309,-5.4640694598883, , , ,7.0300002098083
0.0040955450559894,0.0041095932755747,0.0041181458617472,3.702362712878,7.2574638651622,-5.4641090081324,-0.1108898534299,0.6331825921538,0.7660148877717,7.039999961853
0.0034807031653232,0.0034766199337516,0.0034885319028033,3.7022759275168,7.2574058222122,-5.464181507781, , , ,7.0500001907349
0.0046651775392489,0.0046998320920258,0.0046681041193886,3.7022607376152,7.2573789149665,-5.4642054590036,-0.11080576866591,0.63313518823362,0.76593833827134,7.0599999427795
0.0046140997982859,0.0046448665786134,0.0046436139859993,3.7022405623065,7.2573456352115,-5.4642362194829, , , ,7.0700001716614
0.0048393204856206,0.004784396689154,0.0047924124020904,3.7023364783812,7.2574455864443,-5.4641221693838,-0.11088365756531,0.6332225879892,0.76601652218154,7.0799999237061
0.0045296356051523,0.0045351859390444,0.0045221353935019,3.7023617547828,7.2575052394433,-5.4640771143376, , , ,7.0900001525879
0.0046121115892826,0.0045943519629891,0.0045840451702924,3.7022925856198,7.2574252239803,-5.4641557527858,-0.11094898700025,0.63326265380494,0.76597755462559,7.0999999046326
0.0034631443269818,0.0034895138300737,0.0034543415490168,3.7022229140406,7.2573242591915,-5.4642519850852, , , ,7.1100001335144
0.003335565978205,0.0033228543371867,0.003369025953832,3.7019531216376,7.2570724460621,-5.4645005463043,-0.11088282829752,0.63328299835501,0.76601806271786,7.1199998855591
0.0037284451609701,0.0037436812445337,0.0037298295225186,3.7019384066609,7.2570384537095,-5.4645290996968, , , ,7.1300001144409
0.0034864315112479,0.0034983848301983,0.0034939244989153,3.7019303017212,7.257047607257,-5.4645442481548,-0.11096949010216,0.63319686866211,0.76597316748979,7.1399998664856
0.0032128243369228,0.0032353565548814,0.0031930096961441,3.7018970407348,7.2570178739719,-5.4645732531946, , , ,7.1500000953674
0.0032085349209416,0.0032255548894216,0.0032063435604738,3.702101531697,7.2572047207941,-5.4643505134396,-0.11089357680466,0.63327850854681,0.76601173713028,7.1599998474121
0.0029211496467417,0.0029198063380829,0.0029455653704186,3.7020736449665,7.2571767807066,-5.4643978575506, , , ,7.1700000762939
0.0033673176448531,0.0033677153141103,0.003341946970775,3.7020390051853,7.2571399531551,-5.4644293311142,-0.11088171697148,0.63323029781612,0.7660009256376,7.1799998283386
0.0041126046738518,0.0041161391303905,0.0041063575357242,3.7021064209396,7.2572259328376,-5.4643815294871, , , ,7.1900000572205
0.0046687394695734,0.0046737416409949,0.0046640568465698,3.7021329679563,7.257268243023,-5.4643266555277,-0.11093342636795,0.63316623957264,0.76604055398473,7.1999998092651
0.004985032696335,0.0049726142925776,0.0049793498667816,3.7020470105147,7.257146349282,-5.4644329384955, , , ,7.210000038147
0.0063233047231989,0.006339867257293,0.0063244124142449,3.7019976069364,7.2570979312471,-5.4644700241407,-0.11088110076348,0.63319337189795,0.76604777335865,7.2199997901917
0.0064611876725936,0.0064699047520935,0.0064522606724874,3.7020963310055,7.2572117165284,-5.4643661543516, , , ,7.2300000190735
0.0053223145685191,0.0053317489525182,0.00533442831236,3.7022297101399,7.2573566179966,-5.4642271309058,-0.11089299829971,0.63313512775084,0.76600089148193,7.2399997711182
0.0047140009727504,0.0046836507999177,0.0046694025800891,3.7022596411368,7.2573805566578,-5.4642208651169, , , ,7.25
0.0040287408420907,0.0040150575812847,0.0040673812142523,3.7022163745542,7.2573281010037,-5.464254772684,-0.11092004354384,0.63320085647301,0.76604321298299,7.2600002288818
0.0037047566021472,0.0037042444389474,0.0036977260122743,3.7022465064829,7.2573532263166,-5.4642325447765, , , ,7.2699999809265
0.0035663163683808,0.0035870248320001,0.0035902876808699,3.702334800321,7.2574639716602,-5.4641279623415,-0.11074156429288,0.63325231753259,0.76597881496903,7.2800002098083
0.0044772299624667,0.0044854814052693,0.0044966998597376,3.7023755639196,7.2574812752402,-5.4640778063962, , , ,7.289999961853
0.0044843801689191,0.0044789406581563,0.0044948510518042,3.7023325944099,7.2574758501632,-5.4641088173342,-0.1109295910048,0.63321912665814,0.76592292535747,7.3000001907349
0.0035630877979711,0.0035919400276059,0.0035695428496463,3.7023399072388,7.2574645154345,-5.4641080925291, , , ,7.3099999427795
0.003152053140899,0.003162571539952,0.0031553298795387,3.7023662427033,7.2574810338176,-5.4640923497678,-0.11093599382372,0.63321608426923,0.76597031482147,7.3200001716614
0.0026287593860005,0.0026417077161484,0.0026164036962299,3.7022561677287,7.2573641312788,-5.4642073125527, , , ,7.3299999237061
0.0025643265779707,0.0025522505880494,0.0025504284878391,3.7023086224688,7.2574194545462,-5.4641664256393,-0.11085200073476,0.63325745399192,0.76598727617518,7.3400001525879
0.0039510443065787,0.0039469011092288,0.0039401318090133,3.702442527367,7.2575592456091,-5.4640005009884, , , ,7.3499999046326
0.0033974921024634,0.0033936768786692,0.0033672602293573,3.7025120464746,7.257613233252,-5.4639520440732,-0.11089745162697,0.63327877099889,0.76598402335434,7.3600001335144
0.0033251554646193,0.003341491493894,0.0033348887549011,3.7025403045501,7.2576661353153,-5.4639506957686, , , ,7.3699998855591
0.0038872044725085,0.003921428593934,0.0038939964138884,3.7024559450277,7.2575973958435,-5.4639976438961,-0.11097454350749,0.63314202469458,0.76601856746444,7.3800001144409
0.0046952201845706,0.0046910536320214,0.0046932818651479,3.7025439900056,7.2576716099959,-5.4639223750347, , , ,7.3899998664856
0.0035456738691265,0.0035847515284156,0.0035404529948909,3.7025844416384,7.2577059530314,-5.4638691173927,-0.11086497034238,0.63317760344098,0.76600395199072,7.4000000953674
0.0029245703611468,0.0029018516777098,0.0028868518221602,3.7025535580192,7.257681850651,-5.4639198186317, , , ,7.4099998474121
0.0024272859089481,0.0024307727790811,0.0024354572572392,3.7026573285191,7.2578072314032,-5.4637966691527,-0.11082755608913,0.63323994399671,0.76605529836746,7.4200000762939
0.0022603440343324,0.0022591121724584,0.0022492047154863,3.7025922694114,7.2576963929701,-5.4638725918654, , , ,7.4299998283386
0.0018675495109338,0.0018908319067721,0.0018705984500351,3.7024587637242,7.2575228558642,-5.464021334114,-0.11088513805886,0.63324516016368,0.76592812215847,7.4400000572205
0.0018944460455981,0.0018907364769622,0.0018722656088228,3.702447301394,7.2575607263645,-5.4640317929363, , , ,7.4499998092651
0.0018237487383242,0.0018751302046406,0.0018718595209926,3.7027094252123,7.2578247009867,-5.4637615209969,-0.11081769992933,0.63329653853998,0.76605019039893,7.460000038147
0.0018907715892633,0.0019193843330522,0.0019074274629645,3.702719573959,7.2578124363387,-5.4637872543124, , , ,7.4699997901917
0.0018217463597728,0.0018400351250209,0.0018322352018783,3.7026588191626,7.257780129831,-5.463813054977,-0.1108742770204,0.63315445150792,0.76599515888756,7.4800000190735
0.0020153064847247,0.0020187123017181,0.0019993141626894,3.7027674567919,7.2578989408825,-5.4636819871587, , , ,7.4899997711182
0.0023846693784509,0.002371015308766,0.002380920700083,3.7027194106749,7.2578356523994,-5.4637403707823,-0.11087549024165,0.63312955442023,0.76600447553357,7.5
0.0012750578355138,0.0013013522001396,0.0012803290813649,3.7027372460207,7.2578494524545,-5.4637411599147, , , ,7.5100002288818
0.00084039721050846,0.00088693932587664,0.00086673447062974,3.702804264005,7.2579145717207,-5.4636607897712,-0.11088166217772,0.63313671874286,0.7659777576675,7.5199999809265
0.0018150611599996,0.0018027907523149,0.0017979421952863,3.7027515202123,7.2578931184086,-5.4636881356624, , , ,7.5300002098083
0.00022301825660509,0.00023347566532386,0.00023600358154845,3.7028484418991,7.2579388290508,-5.4636144474017,-0.11079964318271,0.6332289834964,0.76603350550297,7.539999961853
0.00051360546083605,0.00049740624625205,0.00052222868101015,3.702818031512,7.2579147637086,-5.4636482342519, , , ,7.5500001907349
-0.00053724155216283,-0.0005483454610417,-0.00053027240023086,3.7028487675399,7.2579563218232,-5.4636262316303,-0.11082765887571,0.6331882665537,0.76601751310959,7.5599999427795
-0.00019424990186859,-0.00019311005888233,-0.00017628407771254,3.7027632798749,7.2578791690869,-5.4636868743154, , , ,7.5700001716614
-0.00057522258981064,-0.00059729723588841,-0.00062118884949225,3.7029105920209,7.2580130932076,-5.463568006256,-0.1109462876694,0.63323204026352,0.76591233584293,7.5799999237061
-0.0012436656310823,-0.0012531169586037,-0.0012452555298306,3.7029598801234,7.2580875449764,-5.4635182679647, , , ,7.5900001525879
-0.0017922708960334,-0.0017677907345619,-0.0017693767466178,3.7029709317003,7.2580925481376,-5.4635032297712,-0.11090481983997,0.63326278875272,0.7659265044013,7.5999999046326
-0.0012576200942563,-0.0012362987902659,-0.0012523345938581,3.7029609083776,7.2580867680021,-5.4634975047989, , , ,7.6100001335144
-0.0019836352341557,-0.0019757860583727,-0.0019825006778717,3.7029745796167,7.2580921998239,-5.4635035152331,-0.11090852491221,0.63316431404199,0.76602259682655,7.6199998855591
-0.0033480786706464,-0.00334254137174,-0.0033654970249391,3.7030193872646,7.2581325528978,-5.4634495065439, , , ,7.6300001144409
-0.0037014138410814,-0.0036900558108714,-0.0037116455159341,3.703022848873,7.258131911546,-5.4634271806212,-0.11081370602521,0.63321612577878,0.76591498260005,7.6399998664856
-0.0047794366691162,-0.0047913210691103,-0.0048199917920403,3.7030702005667,7.2581734895351,-5.463406064964, , , ,7.6500000953674
-0.0053538562746777,-0.0053365810027833,-0.0053506407163527,3.7030707401163,7.2581884956917,-5.4633862856722,-0.11092035318197,0.63317508935957,0.76602534121967,7.6599998474121
-0.0064836619722555,-0.0065193638303628,-0.0065058426782122,3.7029747302483,7.2581068609955,-5.4634852173869, , , ,7.6700000762939
-0.0074469902918397,-0.0074421963671766,-0.0074753552916425,3.7029590343494,7.2580633185952,-5.4635246625375,-0.11087087607156,0.63325280777802,0.76604558505238,7.6799998283386
-0.0077530262255375,-0.0077331206852571,-0.0077116172075528,3.7030781370523,7.2581678099702,-5.4634036858804, , , ,7.6900000572205
-0.0077067865059562,-0.007706161399288,-0.0077259865693016,3.7031537553404,7.2582917975164,-5.4632931392123,-0.11079532738014,0.63321581302051,0.76597178806589,7.6999998092651
-0.0077214416563638,-0.0077072053453556,-0.007707226946889,3.7031207576604,7.258266840154,-5.4632995365363, , , ,7.710000038147
